Temp,AccelX,AccelY,AccelZ,GyroX,GyroY,GyroZ,Millis
27.12,0.14648,-0.05762,1.99463,-1.28174,-1.55640,-0.30518,5835
27.20,0.14648,-0.05762,1.99463,-0.36621,-0.82397,-0.24414,5840
27.20,0.14648,-0.05762,1.99463,0.15259,-0.30518,-0.15259,5844
27.21,0.14648,-0.05762,1.99463,0.15259,-0.27466,-0.03052,5849
27.21,0.14648,-0.05762,1.99463,0.06104,-0.39673,-0.06104,5854
27.23,0.14648,-0.05762,1.99463,0.06104,-0.33569,-0.03052,5859
27.23,0.14648,-0.05762,1.99463,0.03052,-0.21362,-0.06104,5865
27.24,0.14648,-0.05762,1.99463,0.06104,-0.33569,-0.06104,5870
27.24,0.14648,-0.05762,1.99463,0.06104,-0.33569,-0.06104,5876
27.24,0.14648,-0.05762,1.99463,0.00000,-0.30518,-0.12207,5881
27.24,0.14648,-0.05762,1.99463,0.09155,-0.33569,-0.15259,5887
27.24,0.14648,-0.05762,1.99463,0.03052,-0.27466,-0.09155,5892
27.24,0.14648,-0.05762,1.99463,0.06104,-0.24414,0.00000,5898
27.24,0.14648,-0.05762,1.99463,0.09155,-0.30518,-0.06104,5903
27.27,0.14648,-0.05762,1.99463,0.03052,-0.21362,-0.15259,5909
27.27,0.06396,-0.03027,0.98438,-0.06104,-0.27466,-0.06104,5914
27.23,0.06396,-0.03027,0.99463,0.09155,-0.30518,-0.06104,5920
27.23,0.06396,-0.03027,0.99463,0.09155,-0.21362,-0.15259,5925
27.27,0.06494,-0.03027,1.00293,0.03052,-0.33569,0.00000,5931
27.27,0.06494,-0.03027,1.00293,0.00000,-0.30518,-0.15259,5936
27.24,0.06543,-0.03027,1.00488,0.06104,-0.21362,-0.18311,5941
27.24,0.06543,-0.03027,1.00488,0.00000,-0.27466,-0.06104,5947
27.25,0.06543,-0.03125,1.00439,0.15259,-0.27466,0.03052,5952
27.24,0.06543,-0.03125,1.00439,0.03052,-0.33569,-0.12207,5958
27.24,0.06445,-0.03125,1.00293,0.06104,-0.36621,-0.06104,5963
27.24,0.06445,-0.03125,1.00293,0.15259,-0.18311,-0.03052,5969
27.24,0.06299,-0.03027,1.00195,0.03052,-0.27466,-0.15259,5974
27.21,0.06299,-0.02930,1.00000,0.06104,-0.33569,-0.09155,5980
27.21,0.06299,-0.02930,1.00000,0.12207,-0.33569,0.00000,5985
27.27,0.06396,-0.02881,0.99805,0.15259,-0.33569,-0.09155,5990
27.27,0.06396,-0.02881,0.99805,0.09155,-0.36621,-0.12207,5996
27.25,0.06445,-0.02881,0.99805,0.09155,-0.27466,-0.03052,6001
27.25,0.06445,-0.02881,0.99805,0.09155,-0.30518,-0.06104,6007
27.28,0.06494,-0.02930,0.99854,0.00000,-0.30518,-0.09155,6012
27.26,0.06494,-0.02930,0.99854,0.12207,-0.30518,-0.09155,6018
27.26,0.06494,-0.02979,0.99951,0.15259,-0.36621,-0.09155,6023
27.27,0.06543,-0.03027,1.00049,0.03052,-0.27466,-0.03052,6029
27.27,0.06543,-0.03027,1.00049,0.06104,-0.33569,-0.03052,6034
27.26,0.06543,-0.03027,1.00195,0.00000,-0.33569,0.00000,6040
27.26,0.06543,-0.03027,1.00195,0.06104,-0.27466,-0.03052,6045
27.26,0.06543,-0.03076,1.00342,0.06104,-0.36621,-0.12207,6050
27.26,0.06543,-0.03076,1.00342,0.12207,-0.33569,-0.15259,6056
27.24,0.06543,-0.03076,1.00391,0.03052,-0.21362,0.03052,6061
27.24,0.06543,-0.03076,1.00391,-0.03052,-0.24414,-0.03052,6067
27.25,0.06592,-0.03076,1.00391,-0.03052,-0.36621,-0.15259,6072
27.24,0.06592,-0.03076,1.00391,0.09155,-0.42725,0.03052,6078
27.24,0.06641,-0.03076,1.00244,0.12207,-0.27466,-0.06104,6083
27.25,0.06592,-0.03076,1.00000,0.03052,-0.18311,-0.06104,6089
27.25,0.06592,-0.03076,1.00000,0.06104,-0.24414,0.09155,6094
27.28,0.06494,-0.03027,0.99854,0.06104,-0.27466,-0.15259,6100
27.28,0.06494,-0.03027,0.99854,0.15259,-0.30518,-0.06104,6105
27.25,0.06445,-0.03027,0.99854,0.03052,-0.33569,-0.03052,6110
27.25,0.06445,-0.03027,0.99854,0.03052,-0.33569,-0.09155,6116
27.25,0.06494,-0.03076,0.99805,0.00000,-0.36621,-0.09155,6121
27.26,0.06494,-0.03076,0.99805,0.03052,-0.18311,0.00000,6127
27.26,0.06543,-0.03076,0.99854,0.03052,-0.21362,-0.03052,6132
27.27,0.06543,-0.03076,0.99854,0.06104,-0.21362,-0.12207,6138
27.27,0.06592,-0.03076,1.00000,0.12207,-0.27466,-0.09155,6143
27.26,0.06641,-0.03125,1.00195,0.15259,-0.18311,-0.09155,6149
27.26,0.06641,-0.03125,1.00195,0.15259,-0.36621,-0.09155,6154
27.25,0.06592,-0.03125,1.00244,0.00000,-0.18311,-0.12207,6160
27.25,0.06592,-0.03125,1.00244,0.03052,-0.21362,-0.12207,6165
27.25,0.06494,-0.03076,1.00293,0.06104,-0.30518,-0.03052,6170
27.25,0.06494,-0.03076,1.00293,0.09155,-0.36621,-0.06104,6176
27.27,0.06445,-0.03125,1.00244,0.18311,-0.27466,-0.03052,6181
27.31,0.06445,-0.03125,1.00244,0.03052,-0.30518,-0.06104,6187
27.31,0.06494,-0.03174,1.00195,0.06104,-0.33569,-0.09155,6192
27.26,0.06494,-0.03174,1.00195,0.09155,-0.39673,-0.06104,6198
27.26,0.06494,-0.03125,1.00049,0.03052,-0.42725,0.00000,6203
27.27,0.06445,-0.03027,0.99854,0.12207,-0.39673,-0.03052,6209
27.27,0.06445,-0.03027,0.99854,0.09155,-0.36621,-0.09155,6214
27.27,0.06445,-0.02979,0.99707,0.06104,-0.36621,-0.03052,6220
27.27,0.06445,-0.02979,0.99707,0.15259,-0.39673,0.03052,6225
27.26,0.06396,-0.03076,0.99756,0.06104,-0.36621,-0.06104,6230
27.26,0.06396,-0.03076,0.99756,0.09155,-0.33569,-0.12207,6236
27.26,0.06396,-0.03076,0.99902,0.06104,-0.24414,-0.12207,6241
27.27,0.06396,-0.03076,0.99902,0.03052,-0.27466,-0.03052,6247
27.27,0.06445,-0.03125,1.00000,0.03052,-0.24414,0.06104,6252
27.27,0.06445,-0.03174,1.00098,0.12207,-0.27466,-0.09155,6258
27.27,0.06445,-0.03174,1.00098,0.03052,-0.42725,-0.09155,6263
27.29,0.06396,-0.03174,1.00293,0.15259,-0.30518,-0.09155,6269
27.29,0.06396,-0.03174,1.00293,0.06104,-0.24414,-0.09155,6274
27.30,0.06445,-0.03076,1.00342,0.06104,-0.27466,0.00000,6280
27.30,0.06445,-0.03076,1.00342,0.12207,-0.33569,-0.09155,6285
27.25,0.06494,-0.03076,1.00195,0.12207,-0.39673,-0.03052,6290
27.28,0.06494,-0.03076,1.00195,0.03052,-0.36621,-0.09155,6296
27.28,0.06494,-0.03076,1.00098,0.06104,-0.30518,-0.06104,6301
27.26,0.06494,-0.03076,1.00098,0.00000,-0.24414,-0.03052,6307
27.26,0.06445,-0.03027,1.00049,0.12207,-0.15259,-0.09155,6312
27.29,0.06348,-0.03027,1.00049,0.03052,-0.21362,-0.15259,6318
27.29,0.06348,-0.03027,1.00049,0.06104,-0.33569,0.00000,6323
27.28,0.06299,-0.02979,1.00049,0.03052,-0.33569,-0.12207,6329
27.28,0.06299,-0.02979,1.00049,0.06104,-0.36621,-0.12207,6334
27.27,0.06348,-0.03027,1.00000,-0.03052,-0.30518,-0.03052,6339
27.27,0.06348,-0.03027,1.00000,0.09155,-0.27466,-0.09155,6345
27.30,0.06445,-0.03125,1.00049,0.09155,-0.30518,-0.15259,6350
27.29,0.06445,-0.03125,1.00049,0.06104,-0.36621,-0.12207,6356
27.29,0.06543,-0.03174,1.00195,0.09155,-0.30518,-0.18311,6361
27.29,0.06543,-0.03174,1.00195,0.09155,-0.30518,-0.06104,6367
27.29,0.06543,-0.03223,1.00293,0.15259,-0.33569,-0.03052,6372
27.29,0.06494,-0.03223,1.00342,0.15259,-0.27466,-0.06104,6378
27.29,0.06494,-0.03223,1.00342,0.03052,-0.21362,-0.06104,6383
27.31,0.06445,-0.03174,1.00195,-0.03052,-0.36621,-0.06104,6389
27.31,0.06445,-0.03174,1.00195,0.12207,-0.39673,0.03052,6394
27.31,0.06494,-0.03076,1.00049,0.03052,-0.33569,-0.06104,6400
27.31,0.06494,-0.03076,1.00049,-0.03052,-0.33569,-0.09155,6405
27.28,0.06543,-0.03027,1.00000,0.12207,-0.36621,-0.12207,6411
27.32,0.06543,-0.03027,1.00000,0.06104,-0.33569,-0.06104,6416
27.32,0.06494,-0.03027,1.00000,0.00000,-0.30518,-0.03052,6422
27.29,0.06494,-0.03076,1.00049,0.03052,-0.39673,-0.06104,6427
27.29,0.06494,-0.03076,1.00049,0.03052,-0.30518,0.00000,6433
27.29,0.06494,-0.03125,1.00098,0.15259,-0.21362,-0.03052,6438
27.29,0.06494,-0.03125,1.00098,0.03052,-0.21362,-0.12207,6443
27.29,0.06543,-0.03125,1.00098,0.12207,-0.27466,-0.12207,6449
27.29,0.06543,-0.03125,1.00098,0.03052,-0.27466,-0.03052,6454
27.32,0.06592,-0.03174,1.00146,0.06104,-0.30518,-0.06104,6460
27.28,0.06592,-0.03174,1.00146,0.09155,-0.33569,-0.09155,6465
27.28,0.06543,-0.03174,1.00195,-0.03052,-0.33569,-0.09155,6471
27.27,0.06543,-0.03174,1.00195,0.03052,-0.24414,-0.12207,6476
27.27,0.06543,-0.03174,1.00244,0.00000,-0.36621,-0.09155,6482
27.27,0.06543,-0.03125,1.00195,0.03052,-0.39673,-0.03052,6487
27.27,0.06543,-0.03125,1.00195,0.06104,-0.27466,-0.06104,6493
27.31,0.06543,-0.03076,1.00098,0.03052,-0.21362,0.03052,6498
27.31,0.06543,-0.03076,1.00098,0.06104,-0.30518,-0.03052,6504
27.32,0.06543,-0.03076,1.00049,0.09155,-0.30518,-0.06104,6509
27.32,0.06543,-0.03076,1.00049,0.12207,-0.27466,-0.03052,6514
27.29,0.06494,-0.03076,1.00049,0.03052,-0.21362,-0.09155,6520
27.26,0.06494,-0.03076,1.00049,-0.03052,-0.27466,-0.15259,6525
27.26,0.06445,-0.03125,1.00049,0.00000,-0.33569,-0.15259,6531
27.30,0.06348,-0.03125,1.00000,0.09155,-0.24414,0.00000,6536
27.30,0.06348,-0.03125,1.00000,0.03052,-0.24414,-0.09155,6542
27.30,0.06396,-0.03076,0.99951,0.09155,-0.33569,-0.06104,6547
27.30,0.06396,-0.03076,0.99951,0.06104,-0.27466,-0.12207,6553
27.32,0.06445,-0.03027,1.00049,0.03052,-0.33569,-0.12207,6558
27.32,0.06445,-0.03027,1.00049,0.03052,-0.33569,-0.06104,6564
27.31,0.06494,-0.03076,1.00195,0.24414,-0.24414,-0.03052,6569
27.28,0.06494,-0.03076,1.00195,0.18311,-0.30518,-0.06104,6575
27.28,0.06592,-0.03125,1.00195,0.09155,-0.39673,-0.09155,6580
27.30,0.06592,-0.03125,1.00195,0.15259,-0.21362,0.00000,6585
27.30,0.06641,-0.03125,1.00098,0.06104,-0.24414,-0.12207,6591
27.33,0.06494,-0.03076,1.00049,0.06104,-0.36621,0.00000,6596
27.33,0.06494,-0.03076,1.00049,0.15259,-0.24414,-0.03052,6602
27.27,0.06445,-0.03027,1.00049,-0.03052,-0.30518,-0.06104,6607
27.27,0.06445,-0.03027,1.00049,0.12207,-0.36621,-0.06104,6613
27.30,0.06396,-0.03027,1.00049,0.06104,-0.33569,-0.03052,6618
27.30,0.06396,-0.03027,1.00049,0.09155,-0.42725,0.00000,6624
27.31,0.06445,-0.03076,1.00049,0.09155,-0.33569,-0.03052,6629
27.32,0.06445,-0.03076,1.00049,0.06104,-0.39673,-0.09155,6634
27.32,0.06445,-0.03125,1.00000,0.03052,-0.39673,-0.03052,6640
27.28,0.06445,-0.03125,1.00000,0.00000,-0.15259,0.00000,6645
27.28,0.06494,-0.03125,1.00049,0.09155,-0.27466,-0.21362,6651
27.33,0.06592,-0.03076,1.00049,0.12207,-0.33569,-0.06104,6656
27.33,0.06592,-0.03076,1.00049,0.18311,-0.24414,0.00000,6662
27.32,0.06592,-0.03076,1.00000,0.06104,-0.27466,-0.09155,6667
27.32,0.06592,-0.03076,1.00000,0.00000,-0.24414,-0.09155,6673
27.28,0.06494,-0.03076,1.00098,0.06104,-0.18311,-0.06104,6678
27.28,0.06494,-0.03076,1.00098,0.06104,-0.33569,-0.15259,6684
27.36,0.06494,-0.03076,1.00146,0.03052,-0.27466,-0.09155,6689
27.30,0.06494,-0.03076,1.00146,-0.03052,-0.27466,0.00000,6694
27.30,0.06494,-0.02979,1.00195,0.09155,-0.36621,0.00000,6700
27.33,0.06494,-0.02979,1.00195,0.15259,-0.30518,-0.06104,6705
27.33,0.06494,-0.02930,1.00293,0.00000,-0.24414,-0.18311,6711
27.33,0.06494,-0.02979,1.00293,0.12207,-0.27466,-0.15259,6716
27.33,0.06494,-0.02979,1.00293,0.18311,-0.27466,0.00000,6722
27.31,0.06445,-0.03076,1.00146,0.06104,-0.21362,-0.09155,6727
27.31,0.06445,-0.03076,1.00146,0.18311,-0.30518,-0.06104,6733
27.31,0.06445,-0.03174,1.00049,0.12207,-0.30518,-0.12207,6738
27.31,0.06445,-0.03174,1.00049,0.12207,-0.30518,-0.06104,6743
27.33,0.06396,-0.03174,1.00000,0.06104,-0.33569,-0.06104,6749
27.31,0.06396,-0.03174,1.00000,0.00000,-0.27466,-0.09155,6754
27.31,0.06348,-0.03174,1.00000,0.03052,-0.30518,-0.06104,6760
27.31,0.06348,-0.03076,1.00000,0.12207,-0.27466,-0.03052,6765
27.31,0.06348,-0.03076,1.00000,0.03052,-0.27466,0.00000,6771
27.35,0.06396,-0.03027,0.99951,0.09155,-0.33569,0.00000,6776
27.35,0.06396,-0.03027,0.99951,0.03052,-0.33569,-0.06104,6782
27.32,0.06445,-0.03027,1.00049,0.06104,-0.30518,0.00000,6787
27.32,0.06445,-0.03027,1.00049,-0.03052,-0.33569,-0.06104,6792
27.33,0.06445,-0.03076,1.00195,0.06104,-0.30518,0.06104,6798
27.33,0.06445,-0.03076,1.00195,0.12207,-0.36621,0.03052,6803
27.31,0.06494,-0.03125,1.00244,0.00000,-0.33569,-0.12207,6809
27.34,0.06494,-0.03125,1.00244,0.15259,-0.30518,-0.06104,6814
27.34,0.06543,-0.03125,1.00195,0.09155,-0.33569,-0.09155,6820
27.30,0.06494,-0.03076,1.00146,0.03052,-0.30518,-0.06104,6825
27.30,0.06494,-0.03076,1.00146,0.09155,-0.27466,0.03052,6831
27.29,0.06445,-0.03027,1.00195,0.03052,-0.24414,-0.12207,6836
27.29,0.06445,-0.03027,1.00195,0.03052,-0.27466,-0.15259,6841
27.31,0.06494,-0.02979,1.00195,0.12207,-0.21362,-0.06104,6847
27.31,0.06494,-0.02979,1.00195,0.15259,-0.24414,-0.15259,6852
27.34,0.06494,-0.03027,1.00195,0.06104,-0.30518,-0.06104,6858
27.32,0.06494,-0.03027,1.00195,0.00000,-0.21362,-0.12207,6863
27.32,0.06592,-0.03027,1.00146,0.06104,-0.33569,-0.15259,6869
27.33,0.06592,-0.03027,1.00146,0.06104,-0.36621,-0.06104,6874
27.33,0.06592,-0.03027,1.00000,0.09155,-0.24414,-0.09155,6880
27.34,0.06494,-0.03076,0.99951,0.06104,-0.27466,-0.09155,6885
27.34,0.06494,-0.03076,0.99951,0.06104,-0.30518,-0.06104,6891
27.33,0.06494,-0.03076,1.00000,0.12207,-0.30518,-0.06104,6896
27.33,0.06494,-0.03076,1.00000,0.18311,-0.30518,-0.09155,6902
27.34,0.06494,-0.03027,1.00098,0.03052,-0.36621,0.03052,6907
27.34,0.06494,-0.03027,1.00098,0.15259,-0.33569,-0.09155,6912
27.32,0.06445,-0.03076,1.00146,0.09155,-0.24414,0.00000,6918
27.34,0.06445,-0.03076,1.00146,0.06104,-0.33569,0.03052,6923
27.34,0.06494,-0.03174,1.00195,0.06104,-0.30518,-0.03052,6929
27.32,0.06494,-0.03174,1.00195,0.18311,-0.36621,-0.15259,6934
27.32,0.06543,-0.03223,1.00293,0.09155,-0.27466,-0.12207,6939
27.32,0.06494,-0.03174,1.00342,0.03052,-0.33569,0.00000,6945
27.32,0.06494,-0.03174,1.00342,-0.03052,-0.30518,0.00000,6950
27.31,0.06445,-0.03076,1.00244,0.00000,-0.24414,-0.18311,6956
27.31,0.06445,-0.03076,1.00244,0.12207,-0.30518,-0.06104,6961
27.32,0.06445,-0.02979,1.00098,0.12207,-0.30518,-0.03052,6967
27.32,0.06445,-0.02979,1.00098,-0.12207,-0.33569,-0.12207,6972
27.33,0.06494,-0.02979,1.00000,-0.09155,-0.30518,-0.15259,6978
27.33,0.06494,-0.02979,1.00000,0.09155,-0.33569,-0.03052,6983
27.33,0.06543,-0.03027,0.99951,0.06104,-0.27466,-0.06104,6989
27.32,0.06543,-0.03027,0.99951,0.15259,-0.39673,-0.09155,6994
27.32,0.06494,-0.03125,0.99951,0.03052,-0.33569,-0.12207,7000
27.30,0.06396,-0.03125,1.00000,0.00000,-0.27466,-0.15259,7005
27.30,0.06396,-0.03125,1.00000,0.06104,-0.30518,-0.09155,7011
27.35,0.06348,-0.03027,1.00000,0.12207,-0.30518,-0.06104,7016
27.35,0.06348,-0.03027,1.00000,0.03052,-0.33569,-0.12207,7022
27.30,0.06396,-0.03027,1.00049,-0.03052,-0.33569,-0.15259,7027
27.33,0.06396,-0.03027,1.00049,0.03052,-0.33569,-0.12207,7033
27.33,0.06445,-0.03076,1.00244,0.09155,-0.30518,-0.06104,7038
27.34,0.06445,-0.03076,1.00244,0.21362,-0.27466,-0.09155,7044
27.34,0.06543,-0.03125,1.00293,0.12207,-0.21362,0.00000,7049
27.34,0.06641,-0.03125,1.00342,-0.06104,-0.30518,-0.18311,7054
27.34,0.06641,-0.03125,1.00342,0.12207,-0.24414,-0.18311,7060
27.34,0.06592,-0.03076,1.00244,0.06104,-0.27466,-0.09155,7065
27.34,0.06592,-0.03076,1.00244,0.06104,-0.36621,-0.06104,7071
27.33,0.06543,-0.03027,1.00098,0.09155,-0.27466,0.00000,7076
27.33,0.06543,-0.03027,1.00098,0.03052,-0.24414,-0.12207,7082
27.32,0.06543,-0.03027,1.00098,-0.03052,-0.15259,-0.06104,7087
27.36,0.06543,-0.03027,1.00098,0.03052,-0.30518,0.06104,7093
27.36,0.06494,-0.03076,1.00049,0.09155,-0.30518,-0.12207,7098
27.32,0.06494,-0.03076,1.00049,0.09155,-0.42725,-0.24414,7104
27.32,0.06445,-0.03076,0.99951,0.09155,-0.27466,-0.18311,7109
27.31,0.06396,-0.03027,0.99854,0.03052,-0.24414,-0.06104,7114
27.31,0.06396,-0.03027,0.99854,0.06104,-0.30518,0.00000,7120
27.35,0.06348,-0.03027,0.99902,0.15259,-0.27466,0.00000,7125
27.35,0.06348,-0.03027,0.99902,0.03052,-0.39673,-0.03052,7131
27.34,0.06445,-0.03076,1.00098,0.06104,-0.30518,0.00000,7136
27.34,0.06445,-0.03076,1.00098,0.00000,-0.21362,0.00000,7142
27.35,0.06494,-0.03125,1.00293,0.12207,-0.27466,0.03052,7147
27.36,0.06494,-0.03125,1.00293,0.03052,-0.24414,-0.03052,7152
27.36,0.06494,-0.03076,1.00342,0.00000,-0.18311,-0.03052,7158
27.31,0.06494,-0.03076,1.00342,-0.03052,-0.27466,-0.18311,7163
27.31,0.06445,-0.03027,1.00342,0.06104,-0.36621,-0.03052,7169
27.34,0.06445,-0.03027,1.00195,0.06104,-0.30518,-0.12207,7174
27.34,0.06445,-0.03027,1.00195,0.03052,-0.24414,0.03052,7180
27.34,0.06543,-0.03076,1.00000,0.06104,-0.33569,0.06104,7185
27.34,0.06543,-0.03076,1.00000,0.03052,-0.27466,-0.18311,7190
27.33,0.06592,-0.03125,0.99951,0.00000,-0.42725,-0.06104,7196
27.33,0.06592,-0.03125,0.99951,0.06104,-0.30518,0.03052,7201
27.34,0.06543,-0.03076,0.99902,0.09155,-0.24414,-0.09155,7207
27.36,0.06543,-0.03076,0.99902,0.12207,-0.24414,-0.06104,7212
27.36,0.06592,-0.03076,0.99902,-0.06104,-0.24414,-0.06104,7218
27.36,0.06592,-0.03076,1.00000,0.09155,-0.45776,-0.12207,7223
27.36,0.06592,-0.03076,1.00000,0.06104,-0.36621,-0.09155,7229
27.34,0.06543,-0.03076,1.00098,0.12207,-0.27466,-0.09155,7234
27.34,0.06543,-0.03076,1.00098,0.09155,-0.36621,-0.03052,7240
27.35,0.06543,-0.03125,1.00146,0.03052,-0.39673,-0.09155,7245
27.35,0.06543,-0.03125,1.00146,0.09155,-0.33569,0.00000,7251
27.36,0.06396,-0.03125,1.00146,0.09155,-0.36621,0.06104,7256
27.34,0.06396,-0.03125,1.00146,0.09155,-0.36621,-0.06104,7261
27.34,0.06348,-0.03125,1.00244,0.09155,-0.33569,-0.15259,7267
27.31,0.06348,-0.03125,1.00244,0.03052,-0.24414,-0.21362,7272
27.31,0.06445,-0.03076,1.00244,-0.06104,-0.21362,-0.06104,7278
27.33,0.06543,-0.03076,1.00195,0.09155,-0.33569,-0.12207,7283
27.33,0.06543,-0.03076,1.00195,0.12207,-0.21362,-0.12207,7289
27.33,0.06494,-0.03027,1.00195,0.00000,-0.27466,0.00000,7294
27.33,0.06494,-0.03027,1.00195,-0.03052,-0.39673,-0.09155,7300
27.37,0.06445,-0.03027,1.00195,-0.03052,-0.21362,-0.06104,7305
27.37,0.06445,-0.03027,1.00195,0.15259,-0.30518,-0.12207,7311
27.34,0.06396,-0.02979,1.00195,0.09155,-0.27466,-0.09155,7316
27.37,0.06396,-0.02979,1.00195,0.06104,-0.24414,-0.12207,7322
27.37,0.06494,-0.03027,1.00098,0.09155,-0.30518,-0.15259,7327
27.37,0.06494,-0.03027,1.00098,0.15259,-0.30518,0.00000,7333
27.37,0.06494,-0.03125,1.00049,0.15259,-0.39673,0.03052,7338
27.37,0.06543,-0.03125,1.00098,0.00000,-0.33569,-0.06104,7343
27.37,0.06543,-0.03125,1.00098,0.15259,-0.21362,0.03052,7349
27.35,0.06592,-0.03125,1.00098,-0.03052,-0.27466,-0.06104,7354
27.35,0.06592,-0.03125,1.00098,0.00000,-0.39673,-0.12207,7360
27.33,0.06543,-0.03076,1.00146,0.12207,-0.33569,-0.09155,7365
27.33,0.06543,-0.03076,1.00146,0.03052,-0.24414,0.03052,7371
27.39,0.06445,-0.02979,1.00244,0.15259,-0.24414,-0.03052,7376
27.36,0.06445,-0.02979,1.00244,0.09155,-0.36621,-0.03052,7382
27.36,0.06396,-0.03027,1.00293,0.06104,-0.42725,-0.03052,7387
27.36,0.06396,-0.03027,1.00293,0.00000,-0.30518,-0.12207,7392
27.36,0.06445,-0.03125,1.00293,0.18311,-0.24414,-0.03052,7398
27.34,0.06396,-0.03223,1.00244,0.03052,-0.33569,-0.09155,7403
27.34,0.06396,-0.03223,1.00244,0.06104,-0.21362,-0.06104,7409
27.34,0.06396,-0.03174,1.00244,0.06104,-0.36621,-0.09155,7414
27.34,0.06396,-0.03174,1.00244,0.12207,-0.33569,0.00000,7420
27.38,0.06396,-0.03027,1.00098,0.09155,-0.30518,0.00000,7425
27.37,0.06396,-0.03027,1.00098,0.15259,-0.27466,-0.12207,7431
27.37,0.06445,-0.03027,1.00049,0.09155,-0.24414,-0.09155,7436
27.35,0.06445,-0.03027,1.00049,0.00000,-0.21362,-0.09155,7441
27.35,0.06445,-0.03027,1.00146,0.09155,-0.27466,-0.03052,7447
27.35,0.06396,-0.03076,1.00195,0.00000,-0.39673,-0.03052,7452
27.35,0.06396,-0.03076,1.00195,0.03052,-0.30518,-0.06104,7458
27.37,0.06445,-0.03076,1.00195,0.12207,-0.30518,-0.12207,7463
27.37,0.06445,-0.03076,1.00195,0.09155,-0.30518,-0.06104,7469
27.38,0.06445,-0.03076,1.00195,0.12207,-0.33569,0.06104,7474
27.38,0.06445,-0.03076,1.00195,0.03052,-0.33569,-0.12207,7480
27.38,0.06396,-0.03027,1.00195,0.09155,-0.36621,-0.12207,7485
27.38,0.06396,-0.03027,1.00195,0.00000,-0.27466,0.00000,7491
27.38,0.06396,-0.02979,1.00146,0.03052,-0.12207,0.00000,7496
27.34,0.06396,-0.02979,1.00146,0.03052,-0.33569,-0.12207,7501
27.34,0.06445,-0.03027,1.00146,0.03052,-0.33569,-0.18311,7507
27.37,0.06494,-0.03125,1.00146,0.06104,-0.21362,-0.15259,7512
27.37,0.06494,-0.03125,1.00146,0.06104,-0.21362,-0.09155,7518
27.36,0.06494,-0.03125,1.00146,0.03052,-0.21362,0.00000,7523
27.36,0.06494,-0.03125,1.00146,0.00000,-0.21362,-0.12207,7529
27.34,0.06494,-0.03125,1.00000,0.03052,-0.36621,-0.15259,7534
27.34,0.06494,-0.03125,1.00000,0.00000,-0.36621,-0.06104,7539
27.35,0.06543,-0.03125,1.00000,0.00000,-0.39673,-0.06104,7545
27.34,0.06543,-0.03125,1.00000,0.15259,-0.30518,-0.12207,7550
27.34,0.06494,-0.03076,1.00049,0.06104,-0.30518,-0.09155,7556
27.35,0.06494,-0.03076,1.00049,0.03052,-0.27466,-0.24414,7561
27.35,0.06445,-0.03076,1.00195,0.03052,-0.27466,-0.06104,7567
27.36,0.06445,-0.03027,1.00195,0.03052,-0.30518,-0.09155,7572
27.36,0.06445,-0.03027,1.00195,0.18311,-0.27466,0.00000,7578
27.36,0.06494,-0.02930,1.00146,0.06104,-0.33569,-0.06104,7583
27.36,0.06494,-0.02930,1.00146,0.06104,-0.42725,-0.09155,7589
27.38,0.06543,-0.02979,1.00146,0.09155,-0.21362,-0.03052,7594
27.38,0.06543,-0.02979,1.00146,0.03052,-0.42725,-0.06104,7599
27.36,0.06543,-0.03027,1.00244,0.06104,-0.24414,-0.06104,7605
27.39,0.06543,-0.03027,1.00244,0.06104,-0.24414,-0.12207,7610
27.39,0.06445,-0.03076,1.00244,0.00000,-0.24414,-0.12207,7616
27.38,0.06445,-0.03076,1.00244,0.09155,-0.33569,0.00000,7621
27.38,0.06494,-0.03125,1.00244,0.03052,-0.33569,-0.06104,7627
27.37,0.06494,-0.03174,1.00244,0.00000,-0.24414,-0.09155,7632
27.37,0.06494,-0.03174,1.00244,-0.03052,-0.21362,0.03052,7638
27.36,0.06494,-0.03174,1.00146,0.00000,-0.27466,-0.06104,7643
27.36,0.06494,-0.03174,1.00146,0.12207,-0.24414,-0.18311,7649
27.34,0.06543,-0.03125,1.00049,-0.03052,-0.30518,-0.03052,7654
27.38,0.06543,-0.03125,1.00049,0.09155,-0.33569,-0.06104,7660
27.38,0.06543,-0.03174,1.00049,0.18311,-0.30518,-0.06104,7665
27.37,0.06543,-0.03174,1.00049,0.15259,-0.36621,-0.06104,7671
27.37,0.06494,-0.03125,1.00098,0.15259,-0.27466,-0.21362,7676
27.36,0.06445,-0.03076,1.00049,0.09155,-0.30518,-0.06104,7681
27.36,0.06445,-0.03076,1.00049,0.09155,-0.33569,-0.03052,7687
27.36,0.06494,-0.03027,1.00049,0.09155,-0.36621,-0.09155,7692
27.36,0.06494,-0.03027,1.00049,0.00000,-0.24414,-0.06104,7698
27.36,0.06445,-0.03076,1.00146,0.06104,-0.33569,-0.12207,7703
27.36,0.06445,-0.03076,1.00146,0.03052,-0.30518,-0.12207,7709
27.35,0.06494,-0.03076,1.00293,0.03052,-0.21362,-0.12207,7714
27.34,0.06494,-0.03076,1.00293,0.12207,-0.30518,-0.06104,7720
27.34,0.06543,-0.03125,1.00293,0.12207,-0.33569,-0.15259,7725
27.37,0.06543,-0.03125,1.00293,0.06104,-0.30518,0.03052,7731
27.37,0.06494,-0.03125,1.00195,0.03052,-0.33569,-0.03052,7736
27.37,0.06445,-0.03076,1.00146,0.03052,-0.24414,-0.09155,7742
27.37,0.06445,-0.03076,1.00146,0.06104,-0.33569,-0.06104,7747
27.39,0.06445,-0.02979,1.00098,0.06104,-0.36621,0.09155,7752
27.39,0.06445,-0.02979,1.00098,0.12207,-0.30518,-0.06104,7758
27.37,0.06494,-0.03027,1.00146,0.06104,-0.24414,-0.09155,7763
27.37,0.06494,-0.03027,1.00146,0.09155,-0.24414,-0.12207,7769
27.36,0.06494,-0.03076,1.00195,0.09155,-0.24414,-0.15259,7774
27.36,0.06494,-0.03076,1.00195,0.24414,-0.36621,0.00000,7780
27.36,0.06494,-0.03027,1.00146,0.06104,-0.36621,-0.06104,7785
27.36,0.06494,-0.03027,1.00146,0.09155,-0.30518,-0.06104,7791
27.36,0.06494,-0.03076,1.00098,0.18311,-0.42725,-0.03052,7796
27.36,0.06494,-0.03174,1.00146,0.12207,-0.27466,-0.03052,7801
27.36,0.06494,-0.03174,1.00146,-0.03052,-0.33569,-0.03052,7807
27.36,0.06543,-0.03271,1.00146,-0.03052,-0.36621,-0.09155,7812
27.36,0.06543,-0.03271,1.00146,0.03052,-0.21362,-0.03052,7818
27.33,0.06543,-0.03223,1.00146,0.15259,-0.24414,0.00000,7823
27.35,0.06543,-0.03223,1.00146,0.03052,-0.36621,0.03052,7829
27.35,0.06445,-0.03076,1.00146,0.03052,-0.33569,-0.12207,7834
27.37,0.06445,-0.03076,1.00146,0.06104,-0.21362,-0.03052,7840
27.37,0.06396,-0.03027,1.00146,0.09155,-0.21362,-0.06104,7845
27.37,0.06445,-0.03027,1.00146,0.09155,-0.36621,0.00000,7851
27.37,0.06445,-0.03027,1.00146,0.03052,-0.33569,-0.09155,7856
27.39,0.06543,-0.03027,1.00146,0.03052,-0.18311,-0.09155,7861
27.39,0.06543,-0.03027,1.00146,0.03052,-0.30518,-0.18311,7867
27.39,0.06543,-0.03076,1.00098,0.12207,-0.39673,-0.03052,7872
27.39,0.06543,-0.03076,1.00098,0.15259,-0.21362,-0.06104,7878
27.37,0.06543,-0.03125,1.00049,0.03052,-0.24414,-0.06104,7883
27.34,0.06543,-0.03125,1.00049,0.09155,-0.27466,0.00000,7889
27.34,0.06445,-0.03125,1.00049,0.09155,-0.27466,-0.12207,7894
27.38,0.06445,-0.03125,1.00049,0.12207,-0.36621,-0.09155,7900
27.38,0.06348,-0.03174,1.00049,0.06104,-0.21362,0.06104,7905
27.38,0.06348,-0.03174,1.00098,0.15259,-0.21362,-0.09155,7910
27.38,0.06348,-0.03174,1.00098,0.12207,-0.30518,-0.12207,7916
27.34,0.06396,-0.03174,1.00146,0.00000,-0.36621,-0.06104,7921
27.34,0.06396,-0.03174,1.00146,0.03052,-0.33569,-0.06104,7927
27.38,0.06494,-0.03125,1.00195,0.03052,-0.30518,-0.15259,7932
27.38,0.06494,-0.03125,1.00195,-0.03052,-0.33569,-0.15259,7938
27.38,0.06543,-0.03076,1.00146,0.12207,-0.33569,-0.18311,7943
27.38,0.06543,-0.03076,1.00146,0.15259,-0.27466,-0.09155,7949
27.38,0.06543,-0.03027,1.00049,0.03052,-0.36621,0.06104,7954
27.36,0.06543,-0.03027,1.00049,0.03052,-0.33569,-0.09155,7960
27.36,0.06592,-0.03125,1.00000,0.09155,-0.36621,-0.12207,7965
27.39,0.06543,-0.03125,1.00098,0.06104,-0.30518,-0.09155,7971
27.39,0.06543,-0.03125,1.00098,0.06104,-0.36621,-0.15259,7976
27.38,0.06494,-0.03125,1.00195,0.06104,-0.39673,-0.12207,7982
27.38,0.06494,-0.03125,1.00195,-0.03052,-0.33569,-0.09155,7987
27.37,0.06494,-0.03076,1.00195,0.09155,-0.24414,-0.06104,7993
27.34,0.06494,-0.03076,1.00195,0.09155,-0.33569,0.06104,7998
27.34,0.06494,-0.03076,1.00098,0.09155,-0.24414,-0.09155,8003
27.40,0.06494,-0.03076,1.00098,0.09155,-0.27466,-0.12207,8009
27.40,0.06396,-0.03125,1.00049,0.15259,-0.36621,0.00000,8014
27.36,0.06396,-0.03125,1.00098,0.06104,-0.36621,-0.09155,8020
27.36,0.06396,-0.03125,1.00098,0.06104,-0.36621,-0.09155,8025
27.34,0.06445,-0.03174,1.00098,0.06104,-0.24414,-0.03052,8031
27.34,0.06445,-0.03174,1.00098,0.03052,-0.33569,-0.09155,8036
27.38,0.06445,-0.03076,1.00098,0.06104,-0.27466,-0.06104,8042
27.38,0.06445,-0.03076,1.00098,0.06104,-0.24414,-0.18311,8047
27.35,0.06445,-0.03027,1.00146,0.00000,-0.36621,-0.12207,8053
27.34,0.06445,-0.03027,1.00146,0.03052,-0.36621,-0.09155,8058
27.34,0.06445,-0.03076,1.00146,0.09155,-0.36621,-0.12207,8063
27.34,0.06445,-0.03076,1.00146,0.12207,-0.39673,-0.06104,8069
27.34,0.06494,-0.03174,1.00098,0.12207,-0.30518,0.00000,8074
27.38,0.06592,-0.03223,1.00098,0.09155,-0.24414,-0.06104,8080
27.38,0.06592,-0.03223,1.00098,0.06104,-0.30518,-0.12207,8085
27.37,0.06543,-0.03174,1.00098,0.06104,-0.30518,-0.03052,8091
27.37,0.06543,-0.03174,1.00098,0.09155,-0.30518,0.00000,8096
27.36,0.06445,-0.03174,1.00049,0.15259,-0.27466,0.03052,8102
27.36,0.06445,-0.03174,1.00049,0.06104,-0.24414,-0.09155,8107
27.37,0.06445,-0.03174,1.00098,0.06104,-0.27466,-0.12207,8112
27.37,0.06445,-0.03174,1.00098,0.18311,-0.33569,-0.06104,8118
27.37,0.06543,-0.03076,1.00244,0.03052,-0.39673,-0.09155,8123
27.39,0.06543,-0.03076,1.00244,0.00000,-0.30518,-0.09155,8129
27.39,0.06592,-0.02979,1.00293,0.03052,-0.27466,-0.09155,8134
27.37,0.06543,-0.03027,1.00244,0.12207,-0.39673,-0.09155,8140
27.37,0.06543,-0.03027,1.00244,0.12207,-0.36621,-0.09155,8145
27.37,0.06396,-0.03027,1.00146,0.03052,-0.33569,0.00000,8151
27.37,0.06396,-0.03027,1.00146,0.09155,-0.30518,-0.06104,8156
27.37,0.06299,-0.02979,1.00000,0.09155,-0.27466,-0.09155,8161
27.37,0.06299,-0.02979,1.00000,0.03052,-0.27466,0.00000,8167
27.38,0.06348,-0.02979,1.00000,0.15259,-0.36621,-0.09155,8172
27.38,0.06348,-0.02979,1.00000,0.15259,-0.39673,-0.06104,8178
27.38,0.06396,-0.03076,1.00098,0.06104,-0.27466,0.00000,8183
27.36,0.06396,-0.03076,1.00098,0.12207,-0.39673,-0.18311,8189
27.36,0.06445,-0.03125,1.00146,0.09155,-0.33569,-0.18311,8194
27.40,0.06494,-0.03174,1.00146,-0.09155,-0.27466,-0.03052,8200
27.40,0.06494,-0.03174,1.00146,-0.09155,-0.33569,0.00000,8205
27.35,0.06494,-0.03174,1.00098,0.03052,-0.27466,-0.12207,8211
27.35,0.06494,-0.03174,1.00098,0.09155,-0.27466,-0.06104,8216
27.36,0.06494,-0.03125,1.00098,0.09155,-0.27466,-0.06104,8221
27.37,0.06494,-0.03125,1.00098,0.06104,-0.45776,-0.15259,8227
27.37,0.06494,-0.03076,1.00195,-0.03052,-0.39673,-0.09155,8232
27.32,0.06494,-0.03076,1.00195,0.06104,-0.24414,0.00000,8238
27.32,0.06494,-0.03076,1.00244,0.15259,-0.27466,0.00000,8243
27.40,0.06445,-0.03076,1.00195,0.12207,-0.21362,-0.06104,8249
27.40,0.06445,-0.03076,1.00195,0.18311,-0.39673,-0.12207,8254
27.37,0.06445,-0.03076,1.00146,0.00000,-0.39673,-0.06104,8260
27.37,0.06445,-0.03076,1.00146,0.09155,-0.21362,-0.06104,8265
27.38,0.06494,-0.03125,1.00098,0.03052,-0.33569,-0.09155,8271
27.38,0.06494,-0.03125,1.00098,0.06104,-0.39673,0.00000,8276
27.38,0.06543,-0.03174,1.00146,0.12207,-0.24414,-0.06104,8281
27.38,0.06543,-0.03174,1.00146,0.03052,-0.30518,-0.03052,8287
27.38,0.06494,-0.03174,1.00244,0.03052,-0.27466,0.03052,8292
27.39,0.06494,-0.03174,1.00244,0.12207,-0.18311,-0.09155,8298
27.39,0.06445,-0.03076,1.00244,0.06104,-0.18311,-0.15259,8303
27.37,0.06348,-0.03027,1.00195,0.06104,-0.21362,0.00000,8309
27.37,0.06348,-0.03027,1.00195,0.03052,-0.30518,-0.06104,8314
27.37,0.06396,-0.03076,1.00195,0.09155,-0.30518,-0.12207,8320
27.37,0.06396,-0.03076,1.00195,0.12207,-0.18311,-0.18311,8325
27.38,0.06494,-0.03174,1.00244,0.09155,-0.39673,-0.03052,8331
27.38,0.06494,-0.03174,1.00244,0.00000,-0.24414,-0.06104,8336
27.37,0.06445,-0.03174,1.00195,0.00000,-0.36621,-0.18311,8341
27.36,0.06445,-0.03174,1.00195,0.00000,-0.42725,-0.12207,8347
27.36,0.06445,-0.03076,1.00195,-0.03052,-0.27466,-0.09155,8352
27.39,0.06445,-0.03076,1.00195,0.00000,-0.27466,-0.12207,8358
27.39,0.06445,-0.03027,1.00195,0.09155,-0.36621,-0.06104,8363
27.36,0.06543,-0.03076,1.00195,-0.03052,-0.21362,-0.03052,8369
27.36,0.06543,-0.03076,1.00195,0.03052,-0.21362,-0.09155,8374
27.39,0.06543,-0.03174,1.00244,0.09155,-0.21362,-0.03052,8380
27.39,0.06543,-0.03174,1.00244,0.00000,-0.39673,-0.09155,8385
27.38,0.06494,-0.03125,1.00146,0.09155,-0.30518,0.06104,8391
27.42,0.06494,-0.03125,1.00146,0.00000,-0.24414,-0.06104,8396
27.42,0.06445,-0.03027,1.00049,0.03052,-0.27466,-0.06104,8402
27.34,0.06445,-0.03027,1.00049,0.09155,-0.27466,-0.06104,8407
27.34,0.06396,-0.03076,1.00000,0.12207,-0.30518,-0.12207,8413
27.37,0.06396,-0.03125,1.00049,0.12207,-0.15259,-0.06104,8418
27.37,0.06396,-0.03125,1.00049,0.09155,-0.24414,-0.03052,8423
27.37,0.06396,-0.03125,1.00146,0.06104,-0.24414,-0.12207,8429
27.37,0.06396,-0.03125,1.00146,0.03052,-0.30518,-0.09155,8434
27.38,0.06494,-0.03076,1.00146,0.09155,-0.33569,-0.15259,8440
27.38,0.06494,-0.03076,1.00146,0.03052,-0.42725,-0.06104,8445
27.38,0.06445,-0.03076,1.00049,0.12207,-0.33569,-0.03052,8451
27.35,0.06445,-0.03076,1.00049,0.00000,-0.27466,-0.03052,8456
27.35,0.06396,-0.03125,1.00098,-0.03052,-0.24414,-0.09155,8462
27.41,0.06396,-0.03125,1.00098,0.06104,-0.27466,-0.15259,8467
27.41,0.06396,-0.03076,1.00146,0.06104,-0.36621,-0.09155,8473
27.36,0.06445,-0.03076,1.00195,0.09155,-0.33569,-0.12207,8478
27.36,0.06445,-0.03076,1.00195,0.09155,-0.30518,-0.03052,8484
27.36,0.06494,-0.03076,1.00195,0.15259,-0.33569,-0.12207,8489
27.36,0.06494,-0.03076,1.00195,0.06104,-0.27466,-0.18311,8495
27.33,0.06445,-0.03076,1.00244,0.03052,-0.27466,0.00000,8500
27.33,0.06445,-0.03076,1.00244,0.09155,-0.36621,-0.12207,8505
27.37,0.06445,-0.03027,1.00146,0.09155,-0.24414,-0.09155,8511
27.36,0.06445,-0.03027,1.00146,0.03052,-0.21362,-0.15259,8516
27.36,0.06396,-0.03076,1.00098,0.12207,-0.30518,-0.09155,8522
27.36,0.06396,-0.03076,1.00049,0.09155,-0.33569,-0.09155,8527
27.36,0.06396,-0.03076,1.00049,0.03052,-0.33569,-0.09155,8533
27.38,0.06445,-0.03076,1.00049,-0.12207,-0.24414,-0.18311,8538
27.38,0.06445,-0.03076,1.00049,0.06104,-0.33569,-0.06104,8544
27.39,0.06445,-0.03027,1.00098,0.06104,-0.33569,-0.09155,8549
27.39,0.06445,-0.03027,1.00098,0.12207,-0.39673,-0.12207,8555
27.37,0.06348,-0.03076,1.00146,0.03052,-0.33569,-0.12207,8560
27.36,0.06348,-0.03076,1.00146,0.06104,-0.42725,-0.03052,8566
27.36,0.06348,-0.03076,1.00146,0.00000,-0.30518,-0.06104,8571
27.37,0.06348,-0.03076,1.00146,0.03052,-0.30518,-0.06104,8577
27.37,0.06348,-0.03125,1.00146,0.00000,-0.27466,-0.15259,8582
27.39,0.06396,-0.03125,1.00146,0.12207,-0.30518,-0.12207,8587
27.39,0.06396,-0.03125,1.00146,0.06104,-0.33569,-0.03052,8593
27.36,0.06494,-0.03125,1.00195,0.09155,-0.33569,-0.06104,8598
27.36,0.06494,-0.03125,1.00195,0.09155,-0.30518,-0.15259,8604
27.39,0.06494,-0.03027,1.00244,0.15259,-0.33569,-0.09155,8609
27.39,0.06494,-0.03027,1.00244,0.09155,-0.24414,-0.09155,8615
27.39,0.06445,-0.02979,1.00293,0.09155,-0.36621,-0.09155,8620
27.37,0.06445,-0.02979,1.00293,0.03052,-0.33569,-0.09155,8626
27.37,0.06396,-0.03027,1.00244,-0.06104,-0.27466,-0.15259,8631
27.37,0.06396,-0.03076,1.00146,0.15259,-0.27466,0.00000,8637
27.37,0.06396,-0.03076,1.00146,0.06104,-0.33569,-0.09155,8642
27.35,0.06445,-0.03125,1.00146,0.06104,-0.33569,-0.09155,8648
27.35,0.06445,-0.03125,1.00146,0.03052,-0.21362,-0.06104,8653
27.36,0.06494,-0.03125,1.00146,0.00000,-0.30518,-0.06104,8659
27.36,0.06494,-0.03125,1.00146,0.09155,-0.39673,-0.03052,8664
27.38,0.06494,-0.03125,1.00195,0.12207,-0.21362,-0.03052,8669
27.38,0.06494,-0.03125,1.00195,-0.03052,-0.24414,-0.06104,8675
27.38,0.06445,-0.03125,1.00244,0.00000,-0.30518,-0.06104,8680
27.39,0.06445,-0.03125,1.00244,0.15259,-0.42725,-0.03052,8686
27.39,0.06396,-0.03125,1.00244,0.03052,-0.33569,0.00000,8691
27.39,0.06396,-0.03125,1.00244,0.00000,-0.27466,-0.06104,8697
27.39,0.06396,-0.03125,1.00244,0.03052,-0.36621,-0.09155,8702
27.40,0.06396,-0.03027,1.00195,0.00000,-0.36621,0.03052,8708
27.40,0.06396,-0.03027,1.00195,0.12207,-0.36621,-0.09155,8713
27.34,0.06445,-0.02979,1.00146,0.06104,-0.30518,-0.12207,8719
27.34,0.06445,-0.02979,1.00146,0.09155,-0.24414,-0.15259,8724
27.38,0.06494,-0.03027,1.00098,0.06104,-0.39673,-0.06104,8730
27.41,0.06494,-0.03027,1.00098,0.06104,-0.27466,-0.09155,8735
27.41,0.06396,-0.03076,1.00098,0.15259,-0.33569,-0.09155,8740
27.36,0.06396,-0.03076,1.00098,0.15259,-0.36621,0.00000,8746
27.36,0.06348,-0.03174,1.00146,-0.03052,-0.21362,-0.15259,8751
27.35,0.06445,-0.03223,1.00098,0.12207,-0.24414,-0.12207,8757
27.35,0.06445,-0.03223,1.00098,0.06104,-0.30518,-0.18311,8762
27.40,0.06494,-0.03174,1.00098,0.00000,-0.24414,-0.06104,8768
27.40,0.06494,-0.03174,1.00098,0.03052,-0.27466,-0.12207,8773
27.37,0.06543,-0.03125,1.00195,0.12207,-0.33569,-0.06104,8779
27.37,0.06543,-0.03125,1.00195,-0.03052,-0.33569,-0.09155,8784
27.39,0.06494,-0.03076,1.00195,0.03052,-0.36621,0.03052,8790
27.38,0.06494,-0.03076,1.00195,0.06104,-0.42725,-0.06104,8795
27.38,0.06494,-0.03076,1.00244,0.03052,-0.30518,-0.09155,8801
27.38,0.06494,-0.03125,1.00244,0.09155,-0.24414,-0.09155,8806
27.38,0.06494,-0.03125,1.00244,0.09155,-0.15259,-0.06104,8811
27.36,0.06543,-0.03076,1.00195,0.09155,-0.24414,-0.09155,8817
27.36,0.06543,-0.03076,1.00195,0.12207,-0.36621,-0.06104,8822
27.40,0.06543,-0.02979,1.00098,0.09155,-0.39673,-0.09155,8828
27.40,0.06543,-0.02979,1.00098,-0.06104,-0.33569,-0.06104,8833
27.39,0.06494,-0.02979,1.00098,0.03052,-0.30518,-0.06104,8839
27.40,0.06494,-0.02979,1.00098,0.09155,-0.30518,0.00000,8844
27.40,0.06543,-0.03076,1.00098,0.06104,-0.30518,-0.12207,8850
27.37,0.06543,-0.03076,1.00098,-0.06104,-0.24414,-0.21362,8855
27.37,0.06494,-0.03125,1.00146,0.09155,-0.21362,0.00000,8861
27.37,0.06445,-0.03125,1.00146,0.15259,-0.21362,0.00000,8866
27.37,0.06445,-0.03125,1.00146,0.09155,-0.15259,-0.12207,8872
27.39,0.06396,-0.03076,1.00049,0.06104,-0.27466,-0.12207,8877
27.39,0.06396,-0.03076,1.00049,-0.03052,-0.24414,-0.09155,8882
27.41,0.06396,-0.03027,1.00000,0.06104,-0.30518,-0.03052,8888
27.41,0.06396,-0.03027,1.00000,0.00000,-0.36621,-0.06104,8893
27.34,0.06445,-0.03076,1.00098,0.06104,-0.30518,-0.09155,8899
27.37,0.06445,-0.03076,1.00098,0.03052,-0.24414,-0.03052,8904
27.37,0.06445,-0.03076,1.00244,0.09155,-0.42725,-0.09155,8910
27.35,0.06445,-0.03076,1.00244,0.06104,-0.42725,-0.15259,8915
27.35,0.06445,-0.03027,1.00244,0.00000,-0.27466,-0.03052,8921
27.39,0.06445,-0.03076,1.00244,0.09155,-0.21362,0.00000,8926
27.39,0.06445,-0.03076,1.00244,0.06104,-0.24414,0.03052,8932
27.35,0.06494,-0.03076,1.00195,0.09155,-0.39673,0.03052,8937
27.35,0.06494,-0.03076,1.00195,0.18311,-0.39673,-0.06104,8942
27.36,0.06543,-0.03027,1.00098,0.03052,-0.36621,-0.09155,8948
27.36,0.06543,-0.03027,1.00098,0.09155,-0.39673,-0.03052,8953
27.37,0.06543,-0.03076,1.00049,0.09155,-0.30518,-0.06104,8959
27.39,0.06543,-0.03076,1.00049,-0.03052,-0.15259,-0.09155,8964
27.39,0.06494,-0.03125,1.00146,0.06104,-0.24414,-0.03052,8970
27.40,0.06543,-0.03174,1.00195,0.06104,-0.18311,-0.06104,8975
27.40,0.06543,-0.03174,1.00195,0.06104,-0.30518,-0.12207,8981
27.37,0.06592,-0.03174,1.00146,0.21362,-0.36621,-0.12207,8986
27.37,0.06592,-0.03174,1.00146,0.06104,-0.30518,-0.03052,8992
27.40,0.06592,-0.03125,1.00098,0.03052,-0.24414,-0.06104,8997
27.40,0.06592,-0.03125,1.00098,0.09155,-0.27466,-0.15259,9003
27.40,0.06494,-0.03125,1.00049,0.06104,-0.24414,-0.03052,9008
27.40,0.06494,-0.03125,1.00049,0.03052,-0.27466,0.00000,9014
27.40,0.06494,-0.03125,1.00146,0.00000,-0.27466,-0.09155,9019
27.42,0.06494,-0.03125,1.00146,0.00000,-0.24414,-0.09155,9024
27.42,0.06543,-0.03125,1.00244,0.09155,-0.33569,-0.06104,9030
27.40,0.06543,-0.03076,1.00195,0.09155,-0.21362,-0.03052,9035
27.40,0.06543,-0.03076,1.00195,0.09155,-0.33569,-0.15259,9041
27.40,0.06543,-0.03125,1.00098,0.09155,-0.39673,-0.12207,9046
27.40,0.06543,-0.03125,1.00098,0.09155,-0.27466,-0.12207,9052
27.39,0.06543,-0.03125,1.00098,0.00000,-0.30518,-0.12207,9057
27.39,0.06543,-0.03125,1.00098,0.03052,-0.33569,0.00000,9063
27.40,0.06494,-0.03125,1.00195,0.06104,-0.27466,-0.03052,9068
27.40,0.06494,-0.03125,1.00195,0.03052,-0.36621,-0.03052,9073
27.40,0.06445,-0.03174,1.00195,-0.03052,-0.21362,-0.06104,9079
27.40,0.06445,-0.03174,1.00195,0.06104,-0.33569,-0.12207,9084
27.40,0.06494,-0.03271,1.00195,0.15259,-0.30518,-0.09155,9090
27.39,0.06494,-0.03271,1.00146,0.03052,-0.27466,-0.12207,9095
27.39,0.06494,-0.03271,1.00146,0.12207,-0.30518,-0.18311,9101
27.37,0.06494,-0.03223,1.00098,0.12207,-0.30518,-0.09155,9106
27.37,0.06494,-0.03223,1.00098,0.03052,-0.27466,-0.06104,9112
27.40,0.06445,-0.03076,1.00049,-0.03052,-0.30518,-0.09155,9117
27.42,0.06445,-0.03076,1.00049,0.09155,-0.33569,-0.12207,9123
27.42,0.06494,-0.03027,1.00000,0.09155,-0.30518,-0.15259,9128
27.39,0.06494,-0.03027,1.00000,-0.03052,-0.33569,-0.09155,9134
27.39,0.06494,-0.03076,1.00000,-0.03052,-0.24414,-0.03052,9139
27.38,0.06592,-0.03125,1.00049,0.00000,-0.39673,-0.06104,9145
27.38,0.06592,-0.03125,1.00049,0.00000,-0.30518,-0.09155,9150
27.40,0.06641,-0.03125,1.00293,0.12207,-0.42725,-0.06104,9156
27.40,0.06641,-0.03125,1.00293,0.06104,-0.36621,-0.06104,9161
27.38,0.06641,-0.03125,1.00439,0.03052,-0.21362,-0.24414,9167
27.38,0.06641,-0.03125,1.00439,0.24414,-0.39673,-0.06104,9172
27.38,0.06592,-0.03125,1.00439,0.03052,-0.36621,-0.09155,9178
27.41,0.06592,-0.03125,1.00439,0.09155,-0.36621,-0.06104,9183
27.41,0.06494,-0.03076,1.00244,0.09155,-0.33569,-0.03052,9189
27.38,0.06494,-0.03076,1.00244,-0.03052,-0.33569,-0.06104,9194
27.38,0.06445,-0.03027,1.00146,-0.03052,-0.36621,-0.09155,9200
27.40,0.06445,-0.03076,1.00098,0.00000,-0.24414,-0.15259,9205
27.40,0.06445,-0.03076,1.00098,0.06104,-0.42725,-0.09155,9211
27.38,0.06494,-0.03076,0.99951,0.03052,-0.18311,-0.12207,9216
27.38,0.06494,-0.03076,0.99951,0.00000,-0.24414,-0.06104,9222
27.38,0.06494,-0.03027,0.99805,0.00000,-0.30518,-0.18311,9227
27.39,0.06494,-0.03027,0.99805,0.06104,-0.36621,0.03052,9232
27.39,0.06445,-0.03027,0.99854,0.09155,-0.39673,-0.03052,9238
27.40,0.06445,-0.03027,0.99854,-0.03052,-0.24414,-0.09155,9243
27.40,0.06445,-0.03076,0.99951,0.09155,-0.15259,-0.18311,9249
27.39,0.06494,-0.03125,1.00049,0.00000,-0.30518,0.00000,9254
27.39,0.06494,-0.03125,1.00049,0.06104,-0.39673,-0.03052,9260
27.39,0.06543,-0.03125,1.00146,0.03052,-0.30518,-0.06104,9265
27.39,0.06543,-0.03125,1.00146,0.12207,-0.36621,-0.09155,9271
27.39,0.06445,-0.03125,1.00293,0.09155,-0.30518,-0.12207,9276
27.39,0.06445,-0.03125,1.00293,0.12207,-0.24414,-0.09155,9282
27.38,0.06445,-0.03125,1.00439,0.15259,-0.30518,-0.09155,9287
27.38,0.06445,-0.03125,1.00439,0.15259,-0.30518,-0.03052,9293
27.38,0.06494,-0.03076,1.00439,0.00000,-0.27466,-0.06104,9298
27.38,0.06494,-0.03076,1.00439,0.00000,-0.24414,-0.09155,9303
27.38,0.06543,-0.03027,1.00342,0.03052,-0.30518,-0.15259,9309
27.41,0.06396,-0.02930,1.00195,0.09155,-0.30518,-0.03052,9314
27.41,0.06396,-0.02930,1.00195,0.15259,-0.30518,0.00000,9320
27.37,0.06348,-0.02930,1.00049,0.06104,-0.30518,-0.03052,9325
27.37,0.06348,-0.02930,1.00049,0.03052,-0.30518,-0.18311,9331
27.41,0.06396,-0.03027,0.99951,0.03052,-0.36621,-0.06104,9336
27.41,0.06396,-0.03027,0.99951,0.06104,-0.33569,-0.03052,9342
27.38,0.06494,-0.03076,0.99902,0.12207,-0.36621,-0.03052,9347
27.42,0.06494,-0.03076,0.99902,0.06104,-0.33569,-0.09155,9353
27.42,0.06494,-0.03076,0.99951,0.06104,-0.24414,-0.03052,9358
27.40,0.06445,-0.03076,1.00000,0.09155,-0.33569,-0.15259,9363
27.40,0.06445,-0.03076,1.00000,-0.03052,-0.36621,-0.09155,9369
27.40,0.06396,-0.03076,1.00049,0.00000,-0.27466,0.06104,9374
27.40,0.06396,-0.03076,1.00049,0.09155,-0.27466,-0.03052,9380
27.39,0.06445,-0.03125,1.00146,0.06104,-0.24414,-0.06104,9385
27.39,0.06445,-0.03125,1.00146,0.06104,-0.45776,-0.09155,9391
27.39,0.06494,-0.03125,1.00244,0.18311,-0.27466,-0.09155,9396
27.36,0.06494,-0.03125,1.00244,0.12207,-0.21362,0.00000,9402
27.36,0.06494,-0.03076,1.00293,0.09155,-0.24414,-0.03052,9407
27.38,0.06494,-0.03076,1.00293,0.12207,-0.24414,-0.03052,9413
27.38,0.06445,-0.03027,1.00244,0.15259,-0.27466,-0.06104,9418
27.40,0.06396,-0.03027,1.00244,0.09155,-0.33569,-0.03052,9424
27.40,0.06396,-0.03027,1.00244,0.12207,-0.33569,0.03052,9429
27.41,0.06445,-0.03027,1.00195,0.03052,-0.21362,-0.12207,9434
27.41,0.06445,-0.03027,1.00195,-0.03052,-0.18311,-0.12207,9440
27.40,0.06445,-0.03027,1.00098,0.03052,-0.33569,-0.06104,9445
27.40,0.06445,-0.03027,1.00098,0.06104,-0.39673,-0.06104,9451
27.41,0.06445,-0.03076,0.99951,0.06104,-0.30518,-0.06104,9456
27.39,0.06445,-0.03076,0.99951,0.09155,-0.33569,-0.09155,9462
27.39,0.06445,-0.03174,0.99902,0.00000,-0.24414,-0.12207,9467
27.39,0.06445,-0.03174,0.99902,0.00000,-0.30518,-0.12207,9473
27.39,0.06494,-0.03125,1.00000,0.12207,-0.36621,-0.06104,9478
27.41,0.06494,-0.03076,1.00146,0.15259,-0.33569,-0.15259,9484
27.41,0.06494,-0.03076,1.00146,0.06104,-0.30518,-0.15259,9489
27.36,0.06445,-0.03125,1.00244,-0.03052,-0.30518,-0.09155,9495
27.36,0.06445,-0.03125,1.00244,0.00000,-0.33569,-0.06104,9500
27.41,0.06494,-0.03125,1.00342,0.03052,-0.21362,-0.09155,9506
27.38,0.06494,-0.03125,1.00342,0.00000,-0.39673,-0.09155,9511
27.38,0.06543,-0.03174,1.00342,0.09155,-0.39673,-0.06104,9516
27.43,0.06543,-0.03174,1.00342,0.03052,-0.33569,-0.06104,9522
27.43,0.06543,-0.03174,1.00342,0.06104,-0.21362,-0.12207,9527
27.37,0.06445,-0.03174,1.00244,0.06104,-0.30518,-0.09155,9533
27.37,0.06445,-0.03174,1.00244,0.03052,-0.39673,-0.12207,9538
27.40,0.06396,-0.03076,1.00146,0.09155,-0.30518,-0.15259,9544
27.40,0.06396,-0.03076,1.00146,0.06104,-0.27466,-0.09155,9549
27.42,0.06445,-0.03027,1.00098,0.06104,-0.24414,0.00000,9555
27.42,0.06445,-0.03027,1.00098,0.18311,-0.27466,-0.18311,9560
27.38,0.06445,-0.02979,0.99951,0.00000,-0.30518,-0.06104,9566
27.40,0.06445,-0.02979,0.99951,0.00000,-0.42725,0.00000,9571
27.40,0.06396,-0.03027,0.99854,0.03052,-0.36621,-0.03052,9576
27.38,0.06396,-0.03027,0.99854,0.03052,-0.36621,-0.06104,9582
27.38,0.06396,-0.03076,0.99951,0.09155,-0.33569,-0.06104,9587
27.38,0.06445,-0.03027,1.00098,0.09155,-0.30518,-0.06104,9593
27.38,0.06445,-0.03027,1.00098,0.18311,-0.27466,-0.06104,9598
27.40,0.06396,-0.02979,1.00244,0.00000,-0.24414,-0.03052,9604
27.40,0.06396,-0.02979,1.00244,0.06104,-0.27466,-0.18311,9609
27.38,0.06348,-0.03027,1.00293,0.09155,-0.42725,-0.06104,9615
27.38,0.06348,-0.03027,1.00293,0.06104,-0.36621,-0.06104,9620
27.38,0.06396,-0.03174,1.00293,0.03052,-0.45776,0.00000,9626
27.39,0.06396,-0.03174,1.00293,0.03052,-0.24414,0.00000,9631
27.39,0.06445,-0.03174,1.00244,0.03052,-0.27466,-0.06104,9636
27.39,0.06445,-0.03174,1.00244,0.09155,-0.30518,0.00000,9642
27.39,0.06494,-0.03125,1.00146,0.12207,-0.30518,-0.03052,9647
27.39,0.06445,-0.03076,1.00049,0.03052,-0.27466,-0.18311,9653
27.39,0.06445,-0.03076,1.00049,0.09155,-0.30518,-0.09155,9658
27.39,0.06396,-0.03027,1.00000,0.03052,-0.36621,-0.06104,9664
27.39,0.06396,-0.03027,1.00000,0.09155,-0.24414,0.00000,9669
27.42,0.06445,-0.03027,0.99951,0.06104,-0.24414,-0.06104,9674
27.42,0.06445,-0.03027,0.99951,0.12207,-0.24414,-0.12207,9680
27.41,0.06494,-0.03076,0.99951,0.09155,-0.36621,-0.15259,9685
27.38,0.06494,-0.03076,0.99951,0.06104,-0.33569,-0.15259,9691
27.38,0.06445,-0.03174,1.00000,0.00000,-0.27466,0.06104,9696
27.42,0.06445,-0.03174,1.00000,0.15259,-0.33569,0.00000,9702
27.42,0.06396,-0.03271,0.99951,0.03052,-0.33569,-0.06104,9707
27.37,0.06348,-0.03223,1.00000,0.09155,-0.36621,-0.18311,9713
27.37,0.06348,-0.03223,1.00000,0.00000,-0.39673,-0.06104,9718
27.40,0.06396,-0.03174,1.00146,0.03052,-0.24414,-0.09155,9723
27.40,0.06396,-0.03174,1.00146,0.09155,-0.39673,-0.06104,9729
27.42,0.06445,-0.03076,1.00293,0.03052,-0.36621,-0.12207,9734
27.42,0.06445,-0.03076,1.00293,0.03052,-0.30518,-0.18311,9740
27.38,0.06445,-0.03076,1.00342,0.03052,-0.30518,-0.09155,9745
27.43,0.06445,-0.03076,1.00342,0.03052,-0.21362,-0.12207,9751
27.43,0.06494,-0.03076,1.00293,0.12207,-0.21362,-0.09155,9756
27.39,0.06494,-0.03125,1.00195,0.15259,-0.30518,-0.06104,9762
27.39,0.06494,-0.03125,1.00195,0.12207,-0.27466,-0.06104,9767
27.35,0.06592,-0.03125,1.00049,0.06104,-0.36621,-0.21362,9773
27.35,0.06592,-0.03125,1.00049,0.09155,-0.24414,-0.15259,9778
27.38,0.06641,-0.02979,1.00000,0.12207,-0.27466,-0.09155,9784
27.38,0.06641,-0.02979,1.00000,0.06104,-0.24414,-0.18311,9789
27.40,0.06543,-0.02930,1.00049,0.12207,-0.24414,-0.15259,9795
27.42,0.06543,-0.02930,1.00049,0.03052,-0.33569,-0.09155,9800
27.42,0.06445,-0.02979,1.00098,0.09155,-0.42725,0.00000,9805
27.40,0.06445,-0.02979,1.00098,0.00000,-0.27466,-0.06104,9811
27.40,0.06396,-0.03125,1.00146,0.06104,-0.36621,-0.03052,9816
27.42,0.06396,-0.03223,1.00098,0.03052,-0.33569,-0.03052,9822
27.42,0.06396,-0.03223,1.00098,0.15259,-0.21362,-0.06104,9827
27.41,0.06445,-0.03174,1.00098,0.09155,-0.24414,0.00000,9833
27.41,0.06445,-0.03174,1.00098,0.03052,-0.36621,-0.09155,9838
27.40,0.06494,-0.03076,1.00049,0.06104,-0.30518,-0.12207,9844
27.40,0.06494,-0.03076,1.00049,0.03052,-0.27466,-0.12207,9849
27.40,0.06396,-0.03076,1.00000,0.06104,-0.36621,-0.12207,9854
27.39,0.06396,-0.03076,1.00000,0.03052,-0.36621,-0.06104,9860
27.39,0.06299,-0.03125,1.00098,0.06104,-0.36621,0.03052,9865
27.37,0.06299,-0.03125,1.00098,-0.03052,-0.30518,-0.06104,9871
27.37,0.06348,-0.03125,1.00195,0.03052,-0.33569,-0.03052,9876
27.40,0.06494,-0.03125,1.00244,0.00000,-0.36621,0.03052,9882
27.40,0.06494,-0.03125,1.00244,0.03052,-0.36621,-0.03052,9887
27.41,0.06592,-0.03174,1.00293,-0.03052,-0.27466,-0.09155,9893
27.41,0.06592,-0.03174,1.00293,0.03052,-0.39673,-0.06104,9898
27.42,0.06592,-0.03174,1.00391,0.03052,-0.39673,-0.09155,9904
27.42,0.06592,-0.03174,1.00391,-0.06104,-0.27466,-0.09155,9909
27.40,0.06494,-0.03076,1.00439,0.06104,-0.30518,0.00000,9915
27.41,0.06494,-0.03076,1.00439,0.15259,-0.27466,0.00000,9920
27.41,0.06445,-0.02979,1.00293,0.00000,-0.33569,-0.09155,9925
27.39,0.06445,-0.03027,1.00146,0.09155,-0.33569,-0.12207,9931
27.39,0.06445,-0.03027,1.00146,0.12207,-0.30518,-0.06104,9936
27.42,0.06494,-0.03027,1.00049,0.06104,-0.30518,-0.12207,9942
27.42,0.06494,-0.03027,1.00049,0.15259,-0.33569,-0.15259,9947
27.41,0.06494,-0.03027,1.00000,0.06104,-0.27466,-0.12207,9953
27.41,0.06494,-0.03027,1.00000,0.15259,-0.36621,0.00000,9958
27.39,0.06445,-0.02979,0.99951,0.15259,-0.30518,-0.06104,9964
27.42,0.06445,-0.02979,0.99951,0.03052,-0.24414,-0.15259,9969
27.42,0.06445,-0.03027,0.99951,0.03052,-0.33569,-0.21362,9975
27.38,0.06445,-0.03027,0.99951,0.09155,-0.27466,-0.12207,9980
27.38,0.06445,-0.03027,1.00049,0.06104,-0.33569,-0.03052,9985
27.36,0.06396,-0.03076,1.00244,0.09155,-0.36621,-0.06104,9991
27.36,0.06396,-0.03076,1.00244,-0.03052,-0.27466,-0.09155,9996
27.38,0.06396,-0.03076,1.00293,0.00000,-0.24414,-0.18311,10002
27.38,0.06396,-0.03076,1.00293,0.06104,-0.21362,-0.09155,10008
27.39,0.06396,-0.03125,1.00293,-0.03052,-0.24414,-0.06104,10013
27.36,0.06396,-0.03125,1.00293,0.06104,-0.18311,-0.09155,10019
27.36,0.06396,-0.03174,1.00195,0.03052,-0.24414,0.00000,10024
27.41,0.06396,-0.03174,1.00195,0.09155,-0.30518,-0.09155,10030
27.41,0.06396,-0.03174,1.00098,0.15259,-0.33569,-0.06104,10035
27.44,0.06494,-0.03076,1.00098,-0.03052,-0.24414,-0.06104,10041
27.44,0.06494,-0.03076,1.00098,0.06104,-0.30518,-0.18311,10046
27.42,0.06592,-0.03027,1.00195,0.03052,-0.33569,-0.12207,10052
27.42,0.06592,-0.03027,1.00195,0.00000,-0.27466,-0.03052,10058
27.41,0.06641,-0.02979,1.00146,0.09155,-0.36621,-0.21362,10063
27.41,0.06641,-0.02979,1.00146,-0.06104,-0.30518,-0.09155,10069
27.41,0.06592,-0.02979,1.00049,-0.09155,-0.15259,-0.03052,10074
27.41,0.06592,-0.02979,1.00049,-0.03052,-0.15259,0.03052,10080
27.41,0.06445,-0.03076,1.00195,0.21362,-0.27466,-0.09155,10085
27.42,0.06396,-0.03223,1.00244,0.12207,-0.30518,-0.18311,10091
27.42,0.06396,-0.03223,1.00244,0.00000,-0.33569,-0.12207,10097
27.40,0.06445,-0.03223,1.00244,0.06104,-0.33569,-0.06104,10102
27.40,0.06445,-0.03223,1.00244,0.18311,-0.30518,-0.06104,10108
27.41,0.06494,-0.03223,1.00146,0.15259,-0.21362,-0.06104,10113
27.41,0.06494,-0.03223,1.00146,0.15259,-0.33569,-0.09155,10119
27.41,0.06543,-0.03174,1.00000,0.03052,-0.24414,-0.09155,10124
27.40,0.06543,-0.03125,0.99951,-0.09155,-0.21362,-0.12207,10130
27.40,0.06543,-0.03125,0.99951,0.00000,-0.21362,-0.03052,10136
27.40,0.06543,-0.03076,1.00000,0.06104,-0.30518,-0.06104,10141
27.40,0.06543,-0.03076,1.00000,0.06104,-0.39673,-0.06104,10147
27.39,0.06543,-0.02979,1.00098,0.00000,-0.24414,-0.06104,10152
27.39,0.06543,-0.02979,1.00098,0.03052,-0.21362,-0.12207,10158
27.39,0.06543,-0.02979,1.00098,0.03052,-0.30518,-0.03052,10163
27.41,0.06543,-0.02979,1.00098,0.00000,-0.24414,0.00000,10169
27.41,0.06494,-0.02979,1.00195,0.09155,-0.30518,0.00000,10174
27.41,0.06494,-0.03125,1.00293,0.03052,-0.39673,-0.15259,10180
27.41,0.06494,-0.03125,1.00293,0.09155,-0.39673,-0.15259,10185
27.42,0.06445,-0.03174,1.00342,0.03052,-0.21362,-0.21362,10191
27.42,0.06445,-0.03174,1.00342,0.00000,-0.33569,-0.09155,10196
27.44,0.06396,-0.03076,1.00244,0.00000,-0.33569,-0.09155,10202
27.44,0.06396,-0.03076,1.00244,0.06104,-0.30518,-0.09155,10208
27.37,0.06396,-0.03027,1.00146,-0.03052,-0.27466,0.00000,10213
27.41,0.06396,-0.03027,1.00146,0.09155,-0.33569,-0.12207,10219
27.41,0.06445,-0.03027,1.00049,0.12207,-0.39673,-0.12207,10224
27.37,0.06494,-0.03076,1.00098,0.15259,-0.33569,0.00000,10230
27.37,0.06494,-0.03076,1.00098,-0.06104,-0.27466,-0.06104,10235
27.42,0.06445,-0.03125,1.00146,0.00000,-0.27466,-0.18311,10241
27.42,0.06445,-0.03125,1.00146,0.09155,-0.30518,0.00000,10246
27.39,0.06494,-0.03174,1.00098,0.18311,-0.33569,-0.03052,10252
27.39,0.06494,-0.03174,1.00098,0.09155,-0.30518,-0.12207,10257
27.40,0.06494,-0.03125,1.00146,-0.06104,-0.27466,-0.09155,10263
27.45,0.06494,-0.03125,1.00146,0.03052,-0.36621,-0.06104,10269
27.45,0.06494,-0.03125,1.00244,0.03052,-0.33569,-0.06104,10274
27.39,0.06445,-0.03125,1.00293,0.09155,-0.33569,-0.15259,10280
27.39,0.06445,-0.03125,1.00293,0.03052,-0.27466,-0.15259,10285
27.40,0.06445,-0.03125,1.00244,0.15259,-0.30518,-0.09155,10291
27.40,0.06445,-0.03125,1.00244,0.12207,-0.39673,-0.12207,10296
27.41,0.06396,-0.03174,1.00195,0.24414,-0.33569,-0.03052,10302
27.41,0.06396,-0.03174,1.00195,0.00000,-0.39673,0.00000,10307
27.41,0.06348,-0.03125,1.00098,0.03052,-0.33569,-0.06104,10313
27.42,0.06348,-0.03125,1.00098,0.09155,-0.33569,-0.03052,10318
27.42,0.06348,-0.03027,1.00049,0.03052,-0.24414,-0.09155,10324
27.38,0.06396,-0.03027,1.00049,0.03052,-0.30518,-0.09155,10330
27.38,0.06396,-0.03027,1.00049,0.03052,-0.30518,0.00000,10335
27.36,0.06494,-0.03027,1.00049,0.00000,-0.18311,-0.09155,10341
27.36,0.06494,-0.03027,1.00049,0.03052,-0.33569,-0.15259,10346
27.42,0.06592,-0.03027,1.00049,0.03052,-0.36621,-0.06104,10352
27.37,0.06592,-0.03027,1.00049,0.00000,-0.21362,0.00000,10357
27.37,0.06592,-0.03076,1.00195,0.03052,-0.24414,-0.06104,10363
27.41,0.06592,-0.03076,1.00195,0.03052,-0.18311,-0.12207,10368
27.41,0.06494,-0.03174,1.00391,0.03052,-0.33569,-0.03052,10374
27.38,0.06396,-0.03223,1.00439,0.03052,-0.27466,-0.09155,10379
27.38,0.06396,-0.03223,1.00439,0.09155,-0.27466,-0.12207,10385
27.39,0.06445,-0.03223,1.00391,0.03052,-0.27466,-0.09155,10391
27.39,0.06445,-0.03223,1.00391,0.00000,-0.27466,-0.06104,10396
27.39,0.06543,-0.03174,1.00342,0.00000,-0.39673,-0.15259,10402
27.41,0.06543,-0.03174,1.00342,0.03052,-0.27466,-0.06104,10407
27.41,0.06592,-0.03076,1.00391,0.09155,-0.27466,-0.03052,10413
27.41,0.06592,-0.03076,1.00391,-0.06104,-0.09155,-0.03052,10418
27.41,0.06543,-0.03027,1.00342,-0.06104,-0.27466,-0.15259,10424
27.41,0.06494,-0.03076,1.00146,0.09155,-0.33569,-0.03052,10430
27.41,0.06494,-0.03076,1.00146,0.06104,-0.36621,-0.03052,10435
27.43,0.06543,-0.03076,0.99902,0.03052,-0.30518,-0.06104,10441
27.43,0.06543,-0.03076,0.99902,0.03052,-0.27466,-0.09155,10446
27.44,0.06543,-0.03027,0.99902,0.06104,-0.33569,-0.03052,10452
27.44,0.06543,-0.03027,0.99902,0.03052,-0.33569,-0.06104,10457
27.44,0.06494,-0.03076,1.00098,0.06104,-0.30518,-0.12207,10463
27.43,0.06445,-0.03125,1.00146,-0.03052,-0.36621,-0.09155,10468
27.43,0.06445,-0.03125,1.00146,0.09155,-0.45776,-0.06104,10474
27.41,0.06445,-0.03125,1.00146,0.06104,-0.39673,-0.15259,10480
27.41,0.06445,-0.03125,1.00146,0.03052,-0.24414,-0.12207,10485
27.41,0.06494,-0.03076,1.00146,0.06104,-0.27466,0.00000,10491
27.41,0.06494,-0.03076,1.00146,0.06104,-0.21362,-0.03052,10496
27.38,0.06494,-0.03027,1.00195,-0.06104,-0.21362,-0.06104,10502
27.39,0.06494,-0.03027,1.00195,0.06104,-0.30518,-0.15259,10507
27.39,0.06445,-0.02979,1.00098,0.03052,-0.42725,-0.12207,10513
27.42,0.06494,-0.03027,1.00049,0.00000,-0.24414,-0.06104,10518
27.42,0.06494,-0.03027,1.00049,0.00000,-0.27466,-0.03052,10524
27.38,0.06445,-0.03076,1.00000,-0.03052,-0.27466,-0.06104,10530
27.38,0.06445,-0.03076,1.00000,0.00000,-0.30518,-0.12207,10535
27.39,0.06348,-0.03125,1.00000,0.18311,-0.36621,-0.06104,10541
27.41,0.06348,-0.03125,1.00000,0.03052,-0.30518,-0.03052,10546
27.41,0.06445,-0.03125,0.99951,0.00000,-0.30518,0.00000,10552
27.42,0.06445,-0.03125,0.99951,0.09155,-0.42725,-0.12207,10557
27.42,0.06543,-0.03076,1.00000,0.09155,-0.27466,-0.18311,10563
27.41,0.06543,-0.03076,1.00146,-0.03052,-0.27466,-0.06104,10568
27.41,0.06543,-0.03076,1.00146,0.06104,-0.27466,0.00000,10574
27.43,0.06494,-0.03027,1.00195,0.09155,-0.30518,-0.06104,10580
27.43,0.06494,-0.03027,1.00195,0.06104,-0.21362,-0.12207,10585
27.40,0.06445,-0.03076,1.00195,0.15259,-0.42725,0.03052,10591
27.42,0.06445,-0.03076,1.00195,0.03052,-0.42725,0.00000,10596
27.42,0.06494,-0.03125,1.00195,0.06104,-0.27466,-0.09155,10602
27.42,0.06494,-0.03125,1.00195,0.00000,-0.30518,0.03052,10607
27.42,0.06543,-0.03076,1.00244,-0.03052,-0.39673,-0.06104,10613
27.43,0.06494,-0.03076,1.00293,0.12207,-0.30518,-0.12207,10618
27.43,0.06494,-0.03076,1.00293,0.06104,-0.30518,0.03052,10624
27.38,0.06494,-0.03027,1.00195,0.06104,-0.33569,0.00000,10629
27.38,0.06494,-0.03027,1.00195,0.18311,-0.21362,-0.09155,10635
27.41,0.06396,-0.03027,1.00000,0.00000,-0.36621,-0.12207,10640
27.42,0.06396,-0.03027,1.00000,-0.03052,-0.36621,-0.09155,10646
27.42,0.06348,-0.03076,0.99951,0.06104,-0.24414,-0.12207,10651
27.38,0.06348,-0.03076,0.99951,0.06104,-0.27466,-0.09155,10657
27.38,0.06396,-0.03125,0.99951,0.06104,-0.27466,-0.15259,10663
27.41,0.06445,-0.03125,1.00049,0.06104,-0.33569,-0.06104,10668
27.41,0.06445,-0.03125,1.00049,0.09155,-0.24414,-0.09155,10674
27.44,0.06445,-0.03125,1.00146,0.06104,-0.27466,-0.15259,10679
27.44,0.06445,-0.03125,1.00146,0.15259,-0.36621,-0.06104,10685
27.43,0.06445,-0.03125,1.00195,0.03052,-0.33569,-0.09155,10690
27.42,0.06445,-0.03125,1.00195,-0.06104,-0.36621,-0.12207,10696
27.42,0.06543,-0.03076,1.00195,0.09155,-0.24414,-0.09155,10702
27.43,0.06543,-0.03076,1.00195,0.12207,-0.24414,-0.12207,10707
27.43,0.06689,-0.03076,1.00293,0.00000,-0.30518,-0.15259,10713
27.43,0.06738,-0.03076,1.00293,0.06104,-0.30518,-0.12207,10718
27.43,0.06738,-0.03076,1.00293,0.12207,-0.33569,-0.06104,10724
27.38,0.06543,-0.03076,1.00244,0.15259,-0.24414,-0.09155,10729
27.38,0.06543,-0.03076,1.00244,0.12207,-0.33569,-0.09155,10735
27.40,0.06445,-0.03076,1.00146,0.09155,-0.27466,0.00000,10740
27.40,0.06445,-0.03076,1.00146,0.06104,-0.30518,0.03052,10746
27.40,0.06445,-0.03125,0.99951,0.00000,-0.30518,-0.06104,10751
27.42,0.06445,-0.03125,0.99951,0.03052,-0.27466,-0.15259,10757
27.42,0.06445,-0.03174,0.99951,-0.06104,-0.33569,-0.15259,10762
27.40,0.06396,-0.03125,1.00049,0.03052,-0.33569,-0.18311,10768
27.40,0.06396,-0.03125,1.00049,0.09155,-0.36621,-0.15259,10774
27.40,0.06445,-0.03076,1.00098,0.09155,-0.30518,-0.03052,10779
27.40,0.06445,-0.03076,1.00098,0.09155,-0.36621,-0.09155,10785
27.42,0.06543,-0.03125,1.00146,0.06104,-0.30518,-0.15259,10790
27.40,0.06543,-0.03125,1.00146,0.06104,-0.27466,-0.09155,10796
27.40,0.06592,-0.03174,1.00244,0.06104,-0.36621,-0.09155,10801
27.41,0.06543,-0.03174,1.00244,0.00000,-0.24414,-0.09155,10807
27.41,0.06543,-0.03174,1.00244,0.06104,-0.39673,-0.09155,10812
27.40,0.06445,-0.03125,1.00195,0.03052,-0.24414,0.00000,10818
27.40,0.06445,-0.03125,1.00195,0.09155,-0.21362,-0.06104,10823
27.41,0.06396,-0.03076,1.00293,0.12207,-0.30518,-0.12207,10829
27.41,0.06396,-0.03076,1.00293,0.09155,-0.33569,-0.12207,10835
27.42,0.06396,-0.03027,1.00293,0.09155,-0.27466,-0.09155,10840
27.41,0.06396,-0.03027,1.00293,0.15259,-0.33569,-0.03052,10846
27.41,0.06494,-0.03076,1.00195,0.00000,-0.33569,-0.09155,10851
27.41,0.06543,-0.03125,1.00146,0.00000,-0.21362,-0.09155,10857
27.41,0.06543,-0.03125,1.00146,0.03052,-0.36621,-0.12207,10862
27.41,0.06445,-0.03076,1.00049,0.12207,-0.36621,0.00000,10868
27.41,0.06445,-0.03076,1.00049,0.06104,-0.39673,-0.03052,10873
27.37,0.06543,-0.03076,1.00000,0.06104,-0.45776,-0.06104,10879
27.37,0.06543,-0.03076,1.00000,0.09155,-0.27466,-0.12207,10884
27.42,0.06592,-0.03076,1.00049,0.06104,-0.33569,-0.12207,10890
27.41,0.06592,-0.03076,1.00049,0.06104,-0.18311,-0.09155,10896
27.41,0.06494,-0.03174,1.00146,-0.06104,-0.18311,-0.15259,10901
27.40,0.06396,-0.03125,1.00195,0.06104,-0.30518,-0.06104,10907
27.40,0.06396,-0.03125,1.00195,0.06104,-0.30518,-0.15259,10912
27.39,0.06445,-0.03027,1.00195,0.06104,-0.33569,-0.09155,10918
27.39,0.06445,-0.03027,1.00195,0.06104,-0.39673,-0.03052,10923
27.42,0.06494,-0.03027,1.00195,0.12207,-0.36621,-0.09155,10929
27.41,0.06494,-0.03027,1.00195,0.15259,-0.42725,-0.09155,10935
27.41,0.06494,-0.03027,1.00195,0.06104,-0.36621,-0.03052,10940
27.40,0.06494,-0.03027,1.00195,0.03052,-0.33569,0.00000,10946
27.40,0.06445,-0.03076,1.00244,-0.03052,-0.33569,-0.06104,10951
27.40,0.06494,-0.03125,1.00195,0.06104,-0.33569,-0.09155,10957
27.40,0.06494,-0.03125,1.00195,0.06104,-0.36621,-0.12207,10962
27.43,0.06543,-0.03125,1.00098,0.12207,-0.30518,-0.09155,10968
27.43,0.06543,-0.03125,1.00098,0.03052,-0.27466,-0.06104,10973
27.39,0.06543,-0.03125,1.00000,-0.06104,-0.36621,-0.15259,10979
27.40,0.06543,-0.03125,1.00000,0.00000,-0.33569,-0.12207,10985
27.40,0.06543,-0.03076,1.00000,0.00000,-0.27466,-0.03052,10990
27.39,0.06543,-0.03076,1.00000,0.00000,-0.27466,-0.09155,10996
27.39,0.06494,-0.03125,1.00049,0.06104,-0.27466,-0.15259,11001
27.41,0.06445,-0.03223,1.00146,0.03052,-0.33569,-0.06104,11007
27.41,0.06445,-0.03223,1.00146,0.03052,-0.30518,0.00000,11012
27.43,0.06396,-0.03223,1.00146,0.12207,-0.27466,0.00000,11018
27.43,0.06396,-0.03223,1.00146,0.03052,-0.36621,-0.09155,11023
27.42,0.06348,-0.03125,1.00244,0.09155,-0.21362,-0.15259,11029
27.40,0.06348,-0.03125,1.00244,0.06104,-0.21362,0.00000,11034
27.40,0.06396,-0.03076,1.00391,0.09155,-0.33569,0.03052,11040
27.41,0.06396,-0.03076,1.00391,0.09155,-0.33569,0.03052,11045
27.41,0.06445,-0.03027,1.00391,0.09155,-0.21362,-0.12207,11051
27.42,0.06445,-0.03027,1.00195,0.12207,-0.42725,0.03052,11056
27.42,0.06445,-0.03027,1.00195,0.21362,-0.33569,0.00000,11062
27.43,0.06445,-0.03027,1.00098,0.12207,-0.27466,-0.06104,11067
27.43,0.06445,-0.03027,1.00098,0.09155,-0.30518,-0.09155,11073
27.41,0.06494,-0.03027,1.00098,0.06104,-0.39673,-0.09155,11078
27.43,0.06494,-0.03027,1.00098,0.06104,-0.27466,-0.15259,11084
27.43,0.06396,-0.03027,1.00049,-0.06104,-0.42725,0.00000,11089
27.40,0.06396,-0.03027,1.00049,0.00000,-0.36621,-0.09155,11095
27.40,0.06348,-0.02979,1.00049,0.00000,-0.33569,-0.15259,11101
27.40,0.06445,-0.03027,1.00098,0.03052,-0.30518,-0.12207,11106
27.40,0.06445,-0.03027,1.00098,0.00000,-0.30518,0.00000,11112
27.39,0.06494,-0.03125,1.00146,0.03052,-0.33569,0.00000,11117
27.39,0.06494,-0.03125,1.00146,0.03052,-0.27466,-0.18311,11123
27.37,0.06543,-0.03174,1.00195,0.06104,-0.33569,-0.09155,11128
27.42,0.06543,-0.03174,1.00195,0.06104,-0.30518,-0.15259,11134
27.42,0.06592,-0.03174,1.00195,0.12207,-0.27466,-0.09155,11139
27.43,0.06592,-0.03174,1.00195,0.09155,-0.24414,-0.06104,11145
27.43,0.06543,-0.03174,1.00244,0.12207,-0.27466,-0.09155,11150
27.42,0.06494,-0.03125,1.00195,0.09155,-0.18311,0.00000,11156
27.42,0.06494,-0.03125,1.00195,0.03052,-0.21362,-0.03052,11161
27.41,0.06445,-0.03027,1.00146,0.03052,-0.30518,-0.09155,11167
27.41,0.06445,-0.03027,1.00146,0.09155,-0.33569,-0.06104,11172
27.41,0.06396,-0.02979,1.00098,0.06104,-0.33569,0.00000,11178
27.43,0.06396,-0.02979,1.00098,0.15259,-0.33569,-0.03052,11183
27.43,0.06396,-0.03027,1.00049,0.09155,-0.30518,-0.06104,11189
27.39,0.06396,-0.03027,1.00049,0.06104,-0.30518,-0.03052,11195
27.39,0.06396,-0.03027,1.00000,0.09155,-0.30518,-0.03052,11200
27.44,0.06445,-0.03027,1.00098,0.12207,-0.30518,-0.09155,11206
27.44,0.06445,-0.03027,1.00098,0.09155,-0.30518,-0.09155,11211
27.41,0.06445,-0.03027,1.00098,0.09155,-0.27466,-0.03052,11217
27.41,0.06445,-0.03027,1.00098,0.00000,-0.33569,-0.12207,11222
27.41,0.06445,-0.03027,1.00098,-0.03052,-0.30518,-0.09155,11228
27.42,0.06445,-0.03027,1.00098,0.12207,-0.30518,0.00000,11234
27.42,0.06494,-0.03076,1.00195,0.15259,-0.30518,0.00000,11239
27.40,0.06494,-0.03076,1.00195,0.09155,-0.24414,-0.06104,11244
27.40,0.06543,-0.03174,1.00293,0.06104,-0.21362,-0.03052,11250
27.43,0.06494,-0.03125,1.00244,0.03052,-0.33569,-0.06104,11256
27.43,0.06494,-0.03125,1.00244,0.06104,-0.39673,-0.15259,11261
27.41,0.06494,-0.03076,1.00195,0.15259,-0.27466,-0.09155,11267
27.41,0.06494,-0.03076,1.00195,0.06104,-0.24414,-0.03052,11272
27.41,0.06543,-0.03076,1.00195,-0.03052,-0.36621,-0.09155,11278
27.41,0.06543,-0.03076,1.00195,0.03052,-0.33569,-0.06104,11283
27.41,0.06543,-0.03076,1.00244,0.06104,-0.39673,-0.12207,11289
27.43,0.06543,-0.03076,1.00244,0.00000,-0.33569,-0.18311,11295
27.43,0.06494,-0.03076,1.00098,0.06104,-0.21362,-0.09155,11300
27.43,0.06445,-0.03076,0.99951,0.12207,-0.33569,-0.09155,11306
27.43,0.06445,-0.03076,0.99951,0.06104,-0.30518,-0.09155,11311
27.42,0.06396,-0.03027,0.99951,-0.03052,-0.33569,-0.03052,11317
27.42,0.06396,-0.03027,0.99951,0.09155,-0.21362,-0.12207,11322
27.43,0.06494,-0.03027,1.00049,0.12207,-0.33569,-0.03052,11328
27.41,0.06494,-0.03027,1.00049,0.09155,-0.39673,-0.06104,11333
27.41,0.06494,-0.03076,1.00098,0.03052,-0.36621,-0.03052,11339
27.44,0.06396,-0.03125,1.00098,0.12207,-0.36621,-0.03052,11345
27.44,0.06396,-0.03125,1.00098,0.12207,-0.42725,-0.03052,11350
27.40,0.06396,-0.03125,1.00098,0.12207,-0.33569,-0.18311,11356
27.40,0.06396,-0.03125,1.00098,0.09155,-0.30518,-0.06104,11361
27.36,0.06445,-0.03027,1.00146,0.06104,-0.36621,-0.09155,11367
27.36,0.06445,-0.03027,1.00146,0.00000,-0.42725,-0.12207,11372
27.42,0.06445,-0.02930,1.00244,0.00000,-0.30518,-0.06104,11378
27.43,0.06445,-0.02930,1.00244,0.03052,-0.27466,-0.06104,11383
27.43,0.06494,-0.02979,1.00244,0.06104,-0.30518,-0.09155,11389
27.42,0.06543,-0.03027,1.00146,0.06104,-0.30518,-0.12207,11395
27.42,0.06543,-0.03027,1.00146,0.03052,-0.36621,0.00000,11400
27.41,0.06494,-0.03027,1.00195,0.06104,-0.30518,0.00000,11406
27.41,0.06494,-0.03027,1.00195,0.00000,-0.24414,-0.09155,11411
27.44,0.06494,-0.03076,1.00244,0.06104,-0.33569,-0.06104,11417
27.44,0.06494,-0.03076,1.00244,0.09155,-0.33569,-0.06104,11422
27.42,0.06592,-0.03125,1.00195,0.06104,-0.27466,-0.03052,11428
27.38,0.06592,-0.03125,1.00195,0.03052,-0.33569,-0.03052,11433
27.38,0.06543,-0.03125,1.00195,0.06104,-0.33569,-0.06104,11439
27.39,0.06494,-0.03174,1.00195,-0.03052,-0.30518,-0.06104,11444
27.39,0.06494,-0.03174,1.00195,0.00000,-0.30518,-0.09155,11450
27.43,0.06494,-0.03174,1.00195,0.06104,-0.36621,-0.06104,11456
27.43,0.06494,-0.03174,1.00195,0.03052,-0.42725,-0.09155,11461
27.41,0.06445,-0.03174,1.00146,-0.09155,-0.27466,-0.03052,11467
27.43,0.06445,-0.03174,1.00146,0.03052,-0.36621,-0.12207,11472
27.43,0.06348,-0.03174,1.00000,0.00000,-0.21362,-0.12207,11478
27.40,0.06348,-0.03174,1.00000,0.00000,-0.24414,-0.09155,11483
27.40,0.06396,-0.03125,1.00000,0.03052,-0.36621,-0.06104,11489
27.40,0.06494,-0.03125,1.00146,-0.03052,-0.30518,0.03052,11494
27.40,0.06494,-0.03125,1.00146,0.06104,-0.30518,-0.09155,11500
27.40,0.06543,-0.03125,1.00293,0.06104,-0.27466,-0.09155,11506
27.40,0.06543,-0.03125,1.00293,0.03052,-0.24414,0.03052,11511
27.39,0.06494,-0.03125,1.00195,0.09155,-0.21362,-0.06104,11517
27.39,0.06494,-0.03125,1.00195,0.03052,-0.30518,-0.15259,11522
27.39,0.06494,-0.03125,1.00000,0.00000,-0.27466,-0.15259,11528
27.40,0.06494,-0.03125,1.00000,0.12207,-0.33569,-0.12207,11533
27.40,0.06494,-0.03125,0.99951,0.03052,-0.33569,-0.18311,11539
27.44,0.06445,-0.03076,1.00000,0.12207,-0.39673,0.00000,11544
27.44,0.06445,-0.03076,1.00000,-0.09155,-0.36621,0.00000,11550
27.43,0.06445,-0.03076,1.00146,-0.06104,-0.30518,-0.15259,11555
27.43,0.06445,-0.03076,1.00146,0.06104,-0.30518,-0.15259,11561
27.44,0.06494,-0.03076,1.00146,0.06104,-0.27466,-0.12207,11567
27.40,0.06494,-0.03076,1.00146,0.03052,-0.30518,-0.12207,11572
27.40,0.06494,-0.03125,1.00098,0.00000,-0.30518,-0.06104,11578
27.42,0.06543,-0.03174,1.00049,0.09155,-0.30518,-0.03052,11583
27.42,0.06543,-0.03174,1.00049,0.03052,-0.24414,-0.06104,11589
27.41,0.06494,-0.03125,1.00146,0.12207,-0.33569,-0.09155,11594
27.41,0.06494,-0.03125,1.00146,0.09155,-0.33569,-0.09155,11600
27.41,0.06445,-0.02979,1.00195,0.09155,-0.30518,-0.12207,11605
27.41,0.06445,-0.02979,1.00195,0.03052,-0.21362,-0.12207,11611
27.45,0.06396,-0.02881,1.00195,0.03052,-0.33569,-0.15259,11617
27.43,0.06396,-0.02881,1.00195,0.03052,-0.36621,-0.09155,11622
27.43,0.06445,-0.02979,1.00146,0.00000,-0.39673,-0.03052,11628
27.44,0.06494,-0.03076,1.00000,0.09155,-0.24414,-0.09155,11633
27.44,0.06494,-0.03076,1.00000,0.03052,-0.36621,0.03052,11639
27.42,0.06494,-0.03174,0.99902,0.06104,-0.33569,-0.03052,11644
27.42,0.06494,-0.03174,0.99902,0.12207,-0.36621,0.00000,11650
27.44,0.06396,-0.03174,0.99854,0.15259,-0.27466,-0.18311,11655
27.44,0.06396,-0.03174,0.99854,0.09155,-0.33569,-0.15259,11661
27.40,0.06396,-0.03125,0.99902,0.09155,-0.21362,-0.12207,11666
27.40,0.06396,-0.03125,0.99902,0.06104,-0.24414,-0.12207,11672
27.40,0.06494,-0.03076,1.00000,0.03052,-0.30518,-0.06104,11677
27.40,0.06494,-0.03174,1.00146,0.09155,-0.33569,-0.12207,11683
27.40,0.06494,-0.03174,1.00146,0.12207,-0.24414,-0.06104,11689
27.37,0.06445,-0.03223,1.00244,0.03052,-0.27466,-0.03052,11694
27.37,0.06445,-0.03223,1.00244,-0.03052,-0.33569,-0.09155,11700
27.46,0.06348,-0.03223,1.00244,0.06104,-0.27466,-0.09155,11705
27.46,0.06348,-0.03223,1.00244,0.03052,-0.27466,-0.12207,11711
27.45,0.06348,-0.03223,1.00195,0.03052,-0.30518,-0.06104,11716
27.42,0.06348,-0.03223,1.00195,0.09155,-0.30518,-0.06104,11722
27.42,0.06445,-0.03125,1.00195,0.06104,-0.30518,-0.06104,11728
27.39,0.06494,-0.03076,1.00146,0.18311,-0.30518,-0.03052,11733
27.39,0.06494,-0.03076,1.00146,0.06104,-0.30518,0.00000,11739
27.44,0.06494,-0.03027,1.00244,0.03052,-0.33569,-0.12207,11744
27.44,0.06494,-0.03027,1.00244,0.06104,-0.39673,-0.06104,11750
27.43,0.06494,-0.03076,1.00293,0.00000,-0.27466,-0.15259,11755
27.40,0.06494,-0.03076,1.00293,-0.03052,-0.30518,-0.06104,11761
27.40,0.06445,-0.03076,1.00195,-0.03052,-0.33569,-0.06104,11766
27.45,0.06445,-0.03076,1.00195,0.06104,-0.33569,-0.09155,11772
27.45,0.06445,-0.03125,1.00098,0.15259,-0.36621,-0.12207,11778
27.45,0.06445,-0.03125,1.00098,0.03052,-0.30518,-0.12207,11783
27.45,0.06445,-0.03125,1.00098,-0.06104,-0.30518,-0.03052,11789
27.46,0.06494,-0.03076,1.00098,0.06104,-0.30518,-0.18311,11794
27.46,0.06494,-0.03076,1.00098,0.00000,-0.21362,-0.09155,11800
27.44,0.06445,-0.03076,1.00098,-0.06104,-0.42725,0.00000,11805
27.44,0.06445,-0.03076,1.00098,0.00000,-0.30518,-0.15259,11811
27.44,0.06445,-0.03076,1.00195,0.09155,-0.36621,-0.09155,11816
27.42,0.06445,-0.03076,1.00195,0.15259,-0.33569,-0.03052,11822
27.42,0.06445,-0.03027,1.00244,0.09155,-0.33569,0.00000,11828
27.40,0.06445,-0.03076,1.00293,0.06104,-0.27466,-0.06104,11833
27.40,0.06445,-0.03076,1.00293,0.06104,-0.30518,0.00000,11839
27.43,0.06494,-0.03027,1.00293,0.06104,-0.36621,-0.06104,11844
27.43,0.06494,-0.03027,1.00293,0.06104,-0.36621,-0.12207,11850
27.39,0.06543,-0.02930,1.00195,-0.03052,-0.24414,-0.18311,11855
27.39,0.06543,-0.02930,1.00195,0.03052,-0.36621,-0.06104,11861
27.39,0.06494,-0.02930,1.00146,0.03052,-0.39673,-0.06104,11866
27.41,0.06396,-0.02979,1.00146,0.06104,-0.30518,-0.12207,11872
27.41,0.06396,-0.02979,1.00146,0.00000,-0.18311,-0.12207,11878
27.38,0.06445,-0.02979,1.00098,0.06104,-0.21362,-0.12207,11883
27.38,0.06445,-0.02979,1.00098,0.06104,-0.27466,-0.12207,11889
27.41,0.06494,-0.03027,0.99951,0.09155,-0.27466,-0.15259,11894
27.41,0.06494,-0.03027,0.99951,-0.03052,-0.27466,-0.03052,11900
27.38,0.06543,-0.03125,0.99854,-0.03052,-0.36621,-0.09155,11905
27.43,0.06543,-0.03125,0.99854,0.03052,-0.33569,-0.15259,11911
27.43,0.06543,-0.03223,0.99951,0.06104,-0.33569,-0.03052,11917
27.42,0.06494,-0.03174,1.00049,0.06104,-0.27466,-0.03052,11922
27.42,0.06494,-0.03174,1.00049,-0.06104,-0.24414,-0.06104,11928
27.41,0.06543,-0.03174,1.00146,0.03052,-0.33569,-0.12207,11933
27.41,0.06543,-0.03174,1.00146,0.09155,-0.30518,-0.09155,11939
27.41,0.06543,-0.03125,1.00244,-0.12207,-0.27466,-0.03052,11944
27.46,0.06543,-0.03125,1.00244,0.06104,-0.33569,-0.06104,11950
27.46,0.06445,-0.03076,1.00244,-0.03052,-0.33569,-0.06104,11956
27.40,0.06445,-0.03076,1.00244,-0.03052,-0.24414,-0.09155,11961
27.40,0.06396,-0.03027,1.00195,0.09155,-0.33569,0.00000,11967
27.40,0.06396,-0.03027,1.00244,0.09155,-0.30518,0.12207,11972
27.40,0.06396,-0.03027,1.00244,0.09155,-0.30518,-0.06104,11978
27.42,0.06396,-0.03027,1.00244,0.00000,-0.24414,-0.12207,11983
27.42,0.06396,-0.03027,1.00244,0.06104,-0.30518,-0.06104,11989
27.44,0.06445,-0.03076,1.00195,0.09155,-0.33569,-0.06104,11994
27.41,0.06445,-0.03076,1.00195,0.06104,-0.36621,-0.06104,12000
27.41,0.06494,-0.03076,1.00146,0.03052,-0.27466,-0.09155,12006
27.38,0.06494,-0.03076,1.00146,0.03052,-0.36621,-0.15259,12011
27.38,0.06494,-0.03076,1.00146,0.12207,-0.27466,-0.12207,12017
27.42,0.06445,-0.03076,1.00146,0.03052,-0.24414,-0.15259,12022
27.42,0.06445,-0.03076,1.00146,0.00000,-0.30518,-0.09155,12028
27.42,0.06396,-0.03027,1.00098,0.06104,-0.33569,-0.15259,12033
27.42,0.06396,-0.03027,1.00098,-0.03052,-0.21362,-0.06104,12039
27.41,0.06299,-0.03027,1.00000,0.03052,-0.27466,0.00000,12044
27.43,0.06299,-0.03027,1.00000,0.03052,-0.27466,-0.03052,12050
27.43,0.06396,-0.03125,1.00000,0.06104,-0.33569,-0.12207,12056
27.42,0.06494,-0.03125,1.00146,0.09155,-0.45776,-0.06104,12061
27.42,0.06494,-0.03125,1.00146,0.03052,-0.30518,-0.15259,12067
27.42,0.06543,-0.03174,1.00195,0.09155,-0.33569,-0.15259,12072
27.42,0.06543,-0.03174,1.00195,0.15259,-0.24414,-0.09155,12078
27.42,0.06543,-0.03125,1.00146,0.15259,-0.27466,-0.06104,12083
27.42,0.06543,-0.03125,1.00146,0.00000,-0.27466,-0.12207,12089
27.44,0.06494,-0.03027,1.00098,0.00000,-0.33569,-0.09155,12094
27.43,0.06494,-0.03027,1.00098,0.03052,-0.30518,0.00000,12100
27.43,0.06445,-0.02979,1.00146,0.03052,-0.36621,-0.06104,12105
27.40,0.06445,-0.02979,1.00244,0.03052,-0.24414,-0.12207,12111
27.40,0.06445,-0.02979,1.00244,0.12207,-0.33569,-0.09155,12116
27.45,0.06494,-0.03076,1.00195,0.15259,-0.21362,-0.03052,12122
27.45,0.06494,-0.03076,1.00195,0.00000,-0.18311,-0.12207,12128
27.39,0.06592,-0.03174,1.00146,0.06104,-0.39673,-0.15259,12133
27.39,0.06592,-0.03174,1.00146,0.09155,-0.30518,-0.06104,12139
27.40,0.06543,-0.03125,1.00146,0.12207,-0.30518,-0.12207,12144
27.43,0.06543,-0.03125,1.00146,0.15259,-0.27466,0.03052,12150
27.43,0.06445,-0.03076,1.00195,0.03052,-0.24414,-0.03052,12155
27.42,0.06348,-0.03076,1.00195,0.00000,-0.27466,-0.09155,12161
27.42,0.06348,-0.03076,1.00195,0.09155,-0.24414,-0.09155,12166
27.39,0.06348,-0.03027,1.00146,0.09155,-0.33569,-0.06104,12172
27.39,0.06348,-0.03027,1.00146,0.06104,-0.33569,-0.09155,12177
27.41,0.06445,-0.03027,1.00146,0.09155,-0.24414,-0.12207,12183
27.41,0.06445,-0.03027,1.00146,0.12207,-0.27466,-0.06104,12189
27.40,0.06543,-0.03076,1.00146,0.03052,-0.36621,-0.09155,12194
27.42,0.06543,-0.03076,1.00146,0.06104,-0.36621,-0.03052,12200
27.42,0.06494,-0.03125,1.00098,0.00000,-0.27466,0.03052,12205
27.45,0.06445,-0.03125,1.00098,0.06104,-0.27466,0.00000,12211
27.45,0.06445,-0.03125,1.00098,0.09155,-0.33569,0.09155,12216
27.42,0.06396,-0.03125,1.00146,0.15259,-0.30518,-0.06104,12222
27.42,0.06396,-0.03125,1.00146,0.12207,-0.18311,-0.21362,12227
27.43,0.06396,-0.03125,1.00195,-0.03052,-0.27466,-0.03052,12233
27.43,0.06396,-0.03125,1.00195,0.06104,-0.27466,-0.06104,12238
27.44,0.06445,-0.03125,1.00244,0.03052,-0.24414,-0.06104,12244
27.40,0.06445,-0.03125,1.00244,-0.03052,-0.21362,-0.03052,12249
27.40,0.06445,-0.03125,1.00146,0.03052,-0.27466,-0.09155,12255
27.44,0.06445,-0.03125,1.00098,0.09155,-0.39673,-0.15259,12261
27.44,0.06445,-0.03125,1.00098,0.09155,-0.30518,-0.15259,12266
27.41,0.06543,-0.03174,1.00000,0.00000,-0.24414,-0.12207,12272
27.41,0.06543,-0.03174,1.00000,0.00000,-0.15259,-0.12207,12277
27.42,0.06592,-0.03174,1.00049,0.12207,-0.39673,-0.06104,12283
27.39,0.06592,-0.03174,1.00049,0.06104,-0.36621,-0.21362,12288
27.39,0.06396,-0.03076,1.00244,0.09155,-0.33569,-0.15259,12294
27.42,0.06396,-0.03076,1.00244,0.15259,-0.42725,-0.09155,12300
27.42,0.06396,-0.03027,1.00293,0.18311,-0.42725,0.00000,12305
27.43,0.06396,-0.03027,1.00146,0.06104,-0.27466,-0.06104,12311
27.43,0.06396,-0.03027,1.00146,-0.06104,-0.27466,-0.03052,12316
27.47,0.06396,-0.03027,1.00098,-0.09155,-0.36621,-0.09155,12322
27.47,0.06396,-0.03027,1.00098,0.03052,-0.30518,-0.12207,12327
27.42,0.06445,-0.03076,1.00195,0.00000,-0.18311,-0.12207,12333
27.46,0.06445,-0.03076,1.00195,-0.09155,-0.21362,-0.09155,12338
27.46,0.06543,-0.03271,1.00244,-0.09155,-0.27466,-0.18311,12344
27.42,0.06543,-0.03320,1.00098,0.06104,-0.30518,-0.03052,12350
27.42,0.06543,-0.03320,1.00098,0.06104,-0.39673,-0.09155,12355
27.41,0.06494,-0.03174,1.00000,0.00000,-0.36621,-0.12207,12361
27.41,0.06494,-0.03174,1.00000,0.00000,-0.27466,-0.18311,12366
27.43,0.06445,-0.03076,0.99951,-0.06104,-0.24414,0.00000,12372
27.43,0.06445,-0.03076,0.99951,0.00000,-0.30518,-0.09155,12378
27.43,0.06445,-0.03027,1.00049,0.12207,-0.33569,-0.03052,12383
27.42,0.06445,-0.03027,1.00049,0.12207,-0.33569,0.00000,12389
27.42,0.06494,-0.03076,1.00195,0.12207,-0.24414,0.00000,12394
27.42,0.06494,-0.03223,1.00244,0.09155,-0.30518,-0.09155,12400
27.42,0.06494,-0.03223,1.00244,0.12207,-0.30518,0.00000,12405
27.38,0.06494,-0.03223,1.00195,0.06104,-0.33569,0.03052,12411
27.38,0.06494,-0.03223,1.00195,0.06104,-0.27466,0.00000,12416
27.40,0.06494,-0.03027,1.00098,0.09155,-0.21362,-0.03052,12421
27.40,0.06494,-0.03027,1.00098,0.06104,-0.33569,-0.21362,12427
27.42,0.06445,-0.02881,1.00049,-0.03052,-0.27466,-0.15259,12433
27.40,0.06445,-0.02881,1.00049,0.03052,-0.18311,-0.03052,12438
27.40,0.06348,-0.02930,0.99951,0.00000,-0.21362,0.00000,12444
27.42,0.06348,-0.02930,0.99951,0.09155,-0.30518,-0.06104,12449
27.42,0.06396,-0.03174,0.99756,0.06104,-0.30518,-0.15259,12455
27.43,0.06543,-0.03369,0.99756,0.15259,-0.15259,-0.06104,12460
27.43,0.06543,-0.03369,0.99756,0.18311,-0.36621,-0.03052,12466
27.42,0.06592,-0.03223,1.00195,0.06104,-0.24414,-0.12207,12471
27.42,0.06592,-0.03223,1.00195,0.00000,-0.33569,-0.09155,12477
27.43,0.06543,-0.02979,1.00537,0.12207,-0.27466,-0.03052,12483
27.44,0.06543,-0.02979,1.00537,0.21362,-0.27466,0.06104,12488
27.44,0.06543,-0.02783,1.00537,0.06104,-0.15259,-0.12207,12494
27.44,0.06494,-0.02734,1.00488,0.09155,-0.36621,-0.06104,12499
27.44,0.06494,-0.02734,1.00488,0.09155,-0.36621,-0.12207,12505
27.43,0.06445,-0.02930,1.00391,0.18311,-0.36621,-0.12207,12510
27.43,0.06445,-0.02930,1.00391,0.27466,-0.33569,0.00000,12516
27.44,0.06494,-0.03223,1.00391,0.24414,-0.27466,0.03052,12521
27.44,0.06494,-0.03223,1.00391,0.09155,-0.33569,-0.06104,12527
27.42,0.06592,-0.03320,1.00439,0.21362,-0.27466,-0.03052,12532
27.41,0.06592,-0.03320,1.00439,0.12207,-0.30518,-0.12207,12538
27.41,0.06592,-0.03223,1.00391,0.15259,-0.21362,-0.03052,12543
27.40,0.06494,-0.03027,1.00098,0.06104,-0.24414,-0.12207,12549
27.40,0.06494,-0.03027,1.00098,0.06104,-0.30518,-0.06104,12554
27.41,0.06494,-0.02930,0.99756,0.09155,-0.24414,-0.12207,12560
27.41,0.06494,-0.02930,0.99756,0.18311,-0.30518,-0.12207,12566
27.41,0.06445,-0.02979,0.99609,0.21362,-0.36621,-0.15259,12571
27.41,0.06445,-0.02979,0.99609,0.00000,-0.21362,-0.03052,12577
27.44,0.06396,-0.03076,0.99658,0.12207,-0.27466,0.03052,12582
27.43,0.06396,-0.03076,0.99658,0.15259,-0.24414,-0.09155,12588
27.43,0.06445,-0.03076,0.99805,0.21362,-0.30518,-0.06104,12593
27.44,0.06494,-0.03076,1.00000,0.09155,-0.30518,-0.15259,12599
27.44,0.06494,-0.03076,1.00000,0.09155,-0.30518,-0.15259,12604
27.41,0.06445,-0.03125,1.00146,0.12207,-0.27466,-0.12207,12610
27.41,0.06445,-0.03125,1.00146,0.09155,-0.21362,-0.09155,12615
27.43,0.06348,-0.03174,1.00293,0.12207,-0.15259,-0.15259,12621
27.43,0.06348,-0.03174,1.00293,0.21362,-0.21362,-0.09155,12627
27.43,0.06396,-0.03125,1.00537,0.03052,-0.33569,-0.15259,12632
27.40,0.06396,-0.03125,1.00537,0.12207,-0.33569,-0.06104,12638
27.40,0.06543,-0.03125,1.00635,0.15259,-0.27466,-0.09155,12643
27.41,0.06592,-0.03076,1.00439,0.18311,-0.18311,-0.06104,12649
27.41,0.06592,-0.03076,1.00439,0.18311,-0.36621,-0.09155,12654
27.41,0.06494,-0.03027,1.00098,0.18311,-0.33569,-0.12207,12660
27.41,0.06494,-0.03027,1.00098,0.00000,-0.27466,-0.09155,12665
27.40,0.06348,-0.02979,0.99805,0.21362,-0.21362,-0.09155,12671
27.42,0.06348,-0.02979,0.99805,0.24414,-0.24414,-0.06104,12677
27.42,0.06348,-0.02979,0.99707,0.24414,-0.27466,-0.09155,12682
27.43,0.06348,-0.02979,0.99707,0.21362,-0.27466,0.00000,12688
27.43,0.06396,-0.02979,0.99609,0.09155,-0.33569,-0.09155,12693
27.40,0.06543,-0.02979,0.99561,0.12207,-0.30518,-0.03052,12699
27.40,0.06543,-0.02979,0.99561,0.12207,-0.21362,-0.09155,12704
27.42,0.06543,-0.02979,0.99707,0.18311,-0.21362,-0.12207,12710
27.42,0.06543,-0.02979,0.99707,0.00000,-0.33569,-0.12207,12715
27.41,0.06396,-0.03076,0.99902,0.12207,-0.18311,-0.15259,12721
27.41,0.06396,-0.03076,0.99902,0.24414,-0.30518,-0.06104,12726
27.41,0.06396,-0.03027,1.00098,0.06104,-0.36621,-0.15259,12732
27.39,0.06396,-0.03027,1.00098,0.06104,-0.42725,-0.12207,12738
27.39,0.06445,-0.03027,1.00439,0.06104,-0.18311,-0.15259,12743
27.39,0.06494,-0.03125,1.00684,0.21362,-0.30518,-0.21362,12749
27.39,0.06494,-0.03125,1.00684,0.09155,-0.21362,-0.12207,12754
27.40,0.06543,-0.03125,1.00586,0.03052,-0.33569,-0.15259,12760
27.40,0.06543,-0.03125,1.00586,0.00000,-0.30518,-0.15259,12765
27.44,0.06445,-0.03076,1.00391,0.15259,-0.27466,-0.03052,12771
27.41,0.06445,-0.03076,1.00391,-0.09155,-0.42725,-0.09155,12776
27.41,0.06494,-0.03076,1.00195,-0.09155,-0.36621,-0.06104,12782
27.41,0.06494,-0.03076,1.00195,0.21362,-0.21362,-0.09155,12788
27.41,0.06494,-0.02979,1.00049,0.09155,-0.24414,-0.12207,12793
27.41,0.06494,-0.02881,1.00000,-0.06104,-0.30518,-0.03052,12799
27.41,0.06494,-0.02881,1.00000,-0.18311,-0.39673,-0.06104,12804
27.43,0.06494,-0.02832,1.00000,0.03052,-0.27466,0.00000,12810
27.43,0.06494,-0.02832,1.00000,0.18311,-0.27466,0.03052,12816
27.42,0.06396,-0.02881,1.00049,0.00000,-0.33569,-0.06104,12821
27.40,0.06396,-0.02881,1.00049,0.03052,-0.27466,-0.15259,12827
27.40,0.06396,-0.02979,1.00098,0.00000,-0.27466,-0.09155,12832
27.43,0.06592,-0.03174,1.00146,-0.03052,-0.24414,-0.15259,12838
27.43,0.06592,-0.03174,1.00146,0.03052,-0.24414,0.00000,12843
27.41,0.06689,-0.03223,1.00293,0.06104,-0.27466,-0.18311,12849
27.41,0.06689,-0.03223,1.00293,0.09155,-0.36621,-0.09155,12854
27.41,0.06592,-0.03223,1.00439,0.12207,-0.21362,0.03052,12860
27.41,0.06592,-0.03223,1.00439,-0.03052,-0.33569,-0.03052,12865
27.43,0.06494,-0.03174,1.00342,0.09155,-0.30518,-0.09155,12871
27.41,0.06494,-0.03174,1.00342,0.00000,-0.21362,0.06104,12877
27.41,0.06396,-0.03027,1.00195,0.12207,-0.27466,-0.06104,12882
27.43,0.06348,-0.02930,1.00146,0.00000,-0.36621,-0.21362,12888
27.43,0.06348,-0.02930,1.00146,0.00000,-0.21362,-0.06104,12893
27.40,0.06348,-0.02979,1.00098,0.03052,-0.36621,-0.09155,12899
27.40,0.06348,-0.02979,1.00098,0.06104,-0.27466,0.00000,12904
27.39,0.06445,-0.03076,0.99951,0.09155,-0.33569,-0.12207,12910
27.39,0.06445,-0.03076,0.99951,0.03052,-0.42725,-0.03052,12915
27.43,0.06445,-0.03076,0.99756,0.06104,-0.30518,-0.18311,12921
27.40,0.06445,-0.03076,0.99756,0.06104,-0.30518,-0.06104,12926
27.40,0.06396,-0.03076,0.99707,0.06104,-0.30518,-0.15259,12932
27.45,0.06445,-0.03076,0.99854,0.06104,-0.27466,-0.06104,12937
27.45,0.06445,-0.03076,0.99854,0.03052,-0.33569,-0.12207,12943
27.42,0.06592,-0.03125,1.00098,0.06104,-0.27466,-0.12207,12949
27.42,0.06592,-0.03125,1.00098,0.12207,-0.33569,-0.06104,12954
27.43,0.06592,-0.03125,1.00293,0.12207,-0.39673,-0.15259,12960
27.43,0.06592,-0.03125,1.00293,0.09155,-0.45776,-0.09155,12965
27.41,0.06543,-0.03076,1.00342,0.21362,-0.39673,0.03052,12971
27.42,0.06543,-0.03076,1.00342,0.06104,-0.39673,0.03052,12976
27.42,0.06445,-0.03125,1.00342,0.09155,-0.36621,-0.09155,12982
27.42,0.06445,-0.03174,1.00195,0.12207,-0.36621,-0.09155,12987
27.42,0.06445,-0.03174,1.00195,0.12207,-0.33569,-0.09155,12993
27.44,0.06494,-0.03076,1.00049,0.09155,-0.27466,-0.03052,12998
27.44,0.06494,-0.03076,1.00049,0.03052,-0.36621,-0.09155,13004
27.42,0.06592,-0.02979,1.00049,0.03052,-0.30518,-0.24414,13009
27.44,0.06592,-0.02979,1.00049,0.12207,-0.45776,-0.03052,13015
27.44,0.06641,-0.02930,1.00146,0.12207,-0.33569,-0.03052,13021
27.43,0.06641,-0.02930,1.00146,0.06104,-0.21362,-0.15259,13026
27.43,0.06641,-0.03027,1.00146,0.06104,-0.21362,-0.09155,13032
27.43,0.06543,-0.03174,1.00098,0.09155,-0.33569,-0.06104,13037
27.43,0.06543,-0.03174,1.00098,0.09155,-0.39673,-0.09155,13043
27.41,0.06348,-0.03125,1.00000,0.06104,-0.24414,-0.15259,13048
27.41,0.06348,-0.03125,1.00000,0.09155,-0.36621,0.00000,13054
27.43,0.06250,-0.03076,1.00000,0.12207,-0.33569,-0.12207,13059
27.40,0.06250,-0.03076,1.00000,0.06104,-0.24414,-0.15259,13065
27.40,0.06250,-0.03076,1.00098,0.03052,-0.18311,-0.12207,13070
27.40,0.06250,-0.03076,1.00098,0.00000,-0.30518,-0.09155,13076
27.40,0.06396,-0.03125,1.00195,0.03052,-0.27466,-0.06104,13081
27.40,0.06494,-0.03125,1.00293,-0.03052,-0.27466,-0.03052,13087
27.40,0.06494,-0.03125,1.00293,0.09155,-0.42725,-0.06104,13093
27.42,0.06445,-0.03076,1.00244,0.15259,-0.30518,-0.12207,13098
27.42,0.06445,-0.03076,1.00244,0.12207,-0.30518,0.03052,13104
27.46,0.06445,-0.03076,1.00146,0.12207,-0.27466,-0.09155,13109
27.45,0.06445,-0.03076,1.00146,0.06104,-0.27466,-0.03052,13115
27.45,0.06445,-0.03076,1.00146,0.09155,-0.30518,0.03052,13120
27.42,0.06445,-0.03076,1.00146,0.06104,-0.24414,-0.15259,13126
27.42,0.06494,-0.03125,1.00098,0.06104,-0.30518,-0.06104,13131
27.39,0.06494,-0.03027,1.00049,0.09155,-0.27466,-0.06104,13137
27.39,0.06494,-0.03027,1.00049,0.12207,-0.24414,0.00000,13142
27.40,0.06445,-0.02979,1.00049,0.00000,-0.27466,-0.03052,13148
27.40,0.06445,-0.02979,1.00049,0.06104,-0.30518,-0.03052,13154
27.46,0.06445,-0.02979,1.00049,0.12207,-0.30518,-0.09155,13159
27.44,0.06445,-0.02979,1.00049,0.06104,-0.27466,0.00000,13165
27.44,0.06396,-0.03027,1.00098,0.06104,-0.27466,-0.09155,13170
27.40,0.06396,-0.03027,1.00098,0.06104,-0.30518,-0.15259,13176
27.40,0.06348,-0.03076,1.00146,0.06104,-0.24414,-0.21362,13181
27.43,0.06396,-0.03027,1.00195,0.00000,-0.39673,-0.21362,13187
27.43,0.06396,-0.03027,1.00195,0.09155,-0.39673,-0.09155,13192
27.39,0.06543,-0.02979,1.00195,0.18311,-0.27466,-0.09155,13198
27.39,0.06543,-0.02979,1.00195,-0.03052,-0.12207,-0.06104,13203
27.39,0.06592,-0.03076,1.00195,0.06104,-0.39673,-0.12207,13209
27.41,0.06592,-0.03076,1.00195,0.15259,-0.30518,-0.09155,13215
27.41,0.06592,-0.03125,1.00195,0.15259,-0.21362,-0.03052,13220
27.45,0.06592,-0.03125,1.00195,0.00000,-0.33569,0.00000,13226
27.45,0.06592,-0.03125,1.00195,0.03052,-0.21362,-0.03052,13231
27.41,0.06543,-0.03027,1.00146,0.09155,-0.27466,-0.09155,13237
27.41,0.06543,-0.03027,1.00146,-0.09155,-0.27466,-0.06104,13242
27.39,0.06445,-0.02979,1.00049,-0.03052,-0.27466,-0.12207,13248
27.39,0.06445,-0.02979,1.00049,0.09155,-0.30518,0.00000,13254
27.43,0.06396,-0.03027,1.00000,0.06104,-0.36621,0.00000,13259
27.42,0.06396,-0.03027,1.00000,0.12207,-0.30518,0.00000,13264
27.42,0.06445,-0.03027,1.00000,0.06104,-0.30518,-0.03052,13270
27.44,0.06445,-0.03027,1.00000,0.15259,-0.33569,0.00000,13275
27.44,0.06543,-0.03076,1.00146,-0.03052,-0.39673,-0.12207,13281
27.45,0.06494,-0.03076,1.00244,0.03052,-0.27466,0.00000,13287
27.45,0.06494,-0.03076,1.00244,0.03052,-0.30518,-0.03052,13292
27.45,0.06445,-0.03076,1.00195,0.09155,-0.30518,-0.06104,13298
27.45,0.06445,-0.03076,1.00195,-0.03052,-0.30518,-0.06104,13303
27.45,0.06494,-0.03027,1.00049,0.00000,-0.36621,-0.03052,13309
27.43,0.06494,-0.03027,1.00049,0.09155,-0.33569,0.03052,13314
27.43,0.06592,-0.02979,1.00098,0.03052,-0.30518,-0.06104,13320
27.47,0.06543,-0.02930,1.00146,0.06104,-0.36621,-0.03052,13325
27.47,0.06543,-0.02930,1.00146,-0.03052,-0.27466,-0.12207,13331
27.43,0.06494,-0.02930,1.00146,0.09155,-0.30518,0.03052,13337
27.43,0.06494,-0.02930,1.00146,0.15259,-0.30518,-0.09155,13342
27.43,0.06445,-0.02979,1.00146,0.03052,-0.33569,0.00000,13348
27.43,0.06445,-0.02979,1.00146,0.12207,-0.33569,-0.03052,13353
27.44,0.06396,-0.03076,1.00049,0.00000,-0.33569,-0.03052,13359
27.44,0.06396,-0.03076,1.00049,0.03052,-0.21362,0.03052,13364
27.44,0.06445,-0.03125,1.00000,0.12207,-0.27466,-0.15259,13370
27.41,0.06445,-0.03125,1.00049,0.06104,-0.27466,-0.06104,13375
27.41,0.06445,-0.03125,1.00049,0.06104,-0.27466,-0.03052,13381
27.45,0.06445,-0.03125,1.00000,0.09155,-0.21362,-0.09155,13386
27.45,0.06445,-0.03125,1.00000,0.15259,-0.30518,0.00000,13392
27.40,0.06445,-0.03174,0.99805,0.12207,-0.36621,0.00000,13397
27.40,0.06445,-0.03174,0.99805,0.09155,-0.30518,-0.15259,13403
27.39,0.06543,-0.03076,0.99854,0.03052,-0.33569,-0.06104,13408
27.42,0.06543,-0.03076,0.99854,0.00000,-0.27466,0.03052,13414
27.42,0.06689,-0.02881,1.00342,-0.09155,-0.27466,0.06104,13419
27.46,0.06592,-0.02734,1.00586,-0.06104,-0.12207,0.00000,13425
27.46,0.06592,-0.02734,1.00586,0.06104,-0.30518,-0.12207,13430
27.44,0.06348,-0.02930,1.00439,0.21362,-0.33569,-0.06104,13436
27.44,0.06348,-0.02930,1.00439,0.15259,-0.39673,-0.06104,13441
27.41,0.06445,-0.03125,1.00391,0.06104,-0.33569,-0.09155,13447
27.41,0.06445,-0.03125,1.00391,0.06104,-0.15259,-0.03052,13453
27.40,0.06641,-0.03174,1.00488,0.06104,-0.27466,0.00000,13458
27.43,0.06641,-0.03174,1.00488,0.03052,-0.27466,0.12207,13464
27.43,0.06543,-0.03125,1.00391,0.12207,-0.21362,0.00000,13469
27.39,0.06543,-0.03125,1.00391,0.03052,-0.24414,-0.03052,13475
27.39,0.06348,-0.02930,1.00146,0.03052,-0.24414,0.00000,13480
27.43,0.06348,-0.02832,1.00049,0.00000,-0.18311,-0.15259,13486
27.43,0.06348,-0.02832,1.00049,-0.03052,-0.30518,-0.12207,13491
27.42,0.06445,-0.02930,1.00049,0.09155,-0.27466,-0.12207,13497
27.42,0.06445,-0.02930,1.00049,0.06104,-0.33569,-0.03052,13502
27.43,0.06543,-0.03125,1.00049,0.00000,-0.36621,0.03052,13508
27.41,0.06543,-0.03125,1.00049,-0.03052,-0.24414,-0.06104,13513
27.41,0.06494,-0.03223,0.99902,0.06104,-0.33569,-0.09155,13519
27.44,0.06348,-0.03174,0.99951,0.15259,-0.39673,-0.03052,13525
27.44,0.06348,-0.03174,0.99951,0.00000,-0.24414,0.03052,13530
27.41,0.06299,-0.02979,1.00195,-0.03052,-0.33569,-0.15259,13536
27.41,0.06299,-0.02979,1.00195,-0.15259,-0.33569,-0.09155,13541
27.44,0.06299,-0.02783,1.00391,-0.09155,-0.36621,-0.06104,13547
27.40,0.06299,-0.02783,1.00391,0.00000,-0.36621,-0.12207,13552
27.40,0.06348,-0.02881,1.00391,0.00000,-0.36621,-0.03052,13558
27.41,0.06348,-0.02881,1.00391,0.12207,-0.30518,-0.09155,13564
27.41,0.06396,-0.03174,1.00342,0.03052,-0.33569,0.06104,13569
27.44,0.06543,-0.03369,1.00195,-0.06104,-0.30518,0.00000,13575
27.44,0.06543,-0.03369,1.00195,-0.03052,-0.36621,-0.06104,13580
27.43,0.06641,-0.03271,1.00049,0.00000,-0.30518,-0.03052,13586
27.43,0.06641,-0.03271,1.00049,0.09155,-0.30518,0.03052,13591
27.42,0.06445,-0.03125,0.99805,0.15259,-0.30518,-0.06104,13597
27.43,0.06445,-0.03125,0.99805,0.06104,-0.27466,-0.09155,13602
27.43,0.06250,-0.03125,0.99707,-0.03052,-0.27466,-0.15259,13608
27.42,0.06250,-0.03125,0.99707,0.06104,-0.27466,-0.03052,13614
27.42,0.06201,-0.03125,0.99609,0.06104,-0.33569,-0.15259,13619
27.46,0.06299,-0.03027,0.99658,0.03052,-0.33569,-0.06104,13625
27.46,0.06299,-0.03027,0.99658,0.00000,-0.30518,-0.12207,13630
27.42,0.06543,-0.03076,0.99854,0.00000,-0.21362,-0.03052,13636
27.42,0.06543,-0.03076,0.99854,0.00000,-0.21362,-0.12207,13641
27.40,0.06543,-0.03076,1.00146,0.06104,-0.30518,-0.15259,13647
27.44,0.06543,-0.03076,1.00146,0.00000,-0.36621,-0.09155,13652
27.44,0.06396,-0.03125,1.00342,0.09155,-0.36621,-0.09155,13658
27.42,0.06396,-0.03125,1.00342,0.06104,-0.33569,-0.06104,13663
27.42,0.06299,-0.03076,1.00488,0.00000,-0.36621,-0.09155,13669
27.44,0.06396,-0.03027,1.00537,0.15259,-0.24414,-0.12207,13675
27.44,0.06396,-0.03027,1.00537,0.12207,-0.27466,0.00000,13680
27.40,0.06543,-0.03125,1.00537,0.09155,-0.36621,-0.12207,13686
27.40,0.06543,-0.03125,1.00537,0.03052,-0.27466,-0.15259,13691
27.43,0.06543,-0.03174,1.00391,0.00000,-0.21362,0.06104,13697
27.40,0.06543,-0.03174,1.00391,0.00000,-0.21362,0.03052,13702
27.40,0.06543,-0.03174,1.00146,0.09155,-0.27466,-0.06104,13708
27.42,0.06543,-0.03174,1.00146,0.00000,-0.39673,0.00000,13713
27.42,0.06445,-0.03076,0.99951,0.15259,-0.24414,-0.03052,13719
27.42,0.06396,-0.02881,0.99707,0.06104,-0.33569,-0.03052,13724
27.42,0.06396,-0.02881,0.99707,-0.03052,-0.21362,-0.06104,13730
27.44,0.06396,-0.02832,0.99707,0.00000,-0.36621,-0.03052,13735
27.44,0.06396,-0.02832,0.99707,0.03052,-0.36621,-0.09155,13741
27.42,0.06396,-0.02930,0.99902,0.21362,-0.30518,0.00000,13747
27.43,0.06396,-0.02930,0.99902,0.00000,-0.36621,-0.15259,13752
27.43,0.06494,-0.03076,1.00049,0.00000,-0.33569,-0.09155,13758
27.41,0.06494,-0.03076,1.00049,-0.06104,-0.33569,-0.09155,13763
27.41,0.06543,-0.03174,1.00195,0.03052,-0.36621,-0.15259,13769
27.44,0.06543,-0.03271,1.00391,0.09155,-0.39673,-0.12207,13774
27.44,0.06543,-0.03271,1.00391,0.12207,-0.36621,-0.09155,13780
27.44,0.06396,-0.03223,1.00439,0.12207,-0.33569,-0.03052,13785
27.44,0.06396,-0.03223,1.00439,0.03052,-0.33569,0.00000,13791
27.44,0.06299,-0.03076,1.00439,0.12207,-0.24414,-0.15259,13796
27.44,0.06299,-0.03076,1.00439,0.03052,-0.24414,-0.12207,13802
27.44,0.06348,-0.02979,1.00342,0.03052,-0.21362,-0.06104,13807
27.40,0.06396,-0.02930,1.00098,0.09155,-0.30518,-0.03052,13813
27.40,0.06396,-0.02930,1.00098,-0.06104,-0.33569,-0.06104,13819
27.44,0.06445,-0.03027,0.99951,-0.18311,-0.24414,-0.18311,13824
27.44,0.06445,-0.03027,0.99951,0.03052,-0.27466,-0.09155,13830
27.41,0.06396,-0.03076,0.99902,0.06104,-0.30518,0.03052,13835
27.41,0.06396,-0.03076,0.99902,0.24414,-0.39673,-0.09155,13841
27.43,0.06396,-0.03125,1.00000,0.15259,-0.33569,-0.03052,13846
27.40,0.06396,-0.03125,1.00000,0.00000,-0.33569,-0.03052,13852
27.40,0.06445,-0.03076,1.00098,0.09155,-0.30518,-0.12207,13858
27.43,0.06543,-0.03125,1.00098,0.06104,-0.33569,0.00000,13863
27.43,0.06543,-0.03125,1.00098,0.09155,-0.30518,-0.06104,13869
27.43,0.06543,-0.03125,1.00098,0.12207,-0.36621,-0.18311,13874
27.43,0.06543,-0.03125,1.00098,0.12207,-0.33569,-0.03052,13880
27.46,0.06494,-0.03076,1.00146,0.03052,-0.36621,-0.09155,13885
27.46,0.06494,-0.03076,1.00146,0.09155,-0.33569,-0.12207,13891
27.42,0.06494,-0.03027,1.00244,0.06104,-0.33569,0.00000,13896
27.44,0.06494,-0.03027,1.00244,0.03052,-0.24414,-0.09155,13902
27.44,0.06445,-0.02979,1.00342,-0.03052,-0.21362,-0.18311,13907
27.46,0.06445,-0.02930,1.00342,0.12207,-0.27466,-0.03052,13913
27.46,0.06445,-0.02930,1.00342,0.12207,-0.30518,-0.09155,13919
27.40,0.06543,-0.02930,1.00195,0.09155,-0.33569,-0.09155,13924
27.40,0.06543,-0.02930,1.00195,-0.03052,-0.33569,-0.03052,13930
27.44,0.06592,-0.02979,1.00049,0.09155,-0.24414,-0.12207,13935
27.42,0.06592,-0.02979,1.00049,0.03052,-0.27466,0.03052,13941
27.42,0.06543,-0.03027,1.00049,0.15259,-0.39673,0.03052,13946
27.43,0.06543,-0.03027,1.00049,0.12207,-0.33569,0.03052,13952
27.43,0.06396,-0.02979,1.00000,0.09155,-0.33569,-0.15259,13957
27.45,0.06299,-0.02930,0.99902,0.12207,-0.33569,0.00000,13963
27.45,0.06299,-0.02930,0.99902,0.15259,-0.30518,0.00000,13968
27.44,0.06299,-0.02930,0.99951,-0.03052,-0.33569,-0.09155,13974
27.44,0.06299,-0.02930,0.99951,0.09155,-0.27466,0.03052,13979
27.42,0.06396,-0.02979,1.00098,0.15259,-0.30518,-0.09155,13985
27.42,0.06396,-0.02979,1.00098,0.09155,-0.24414,-0.09155,13990
27.42,0.06445,-0.03076,1.00195,-0.06104,-0.42725,-0.09155,13996
27.43,0.06445,-0.03076,1.00195,0.03052,-0.54932,-0.15259,14002
27.43,0.06494,-0.03125,1.00342,0.09155,-0.36621,-0.15259,14007
27.40,0.06445,-0.03125,1.00488,0.06104,-0.27466,-0.03052,14013
27.40,0.06445,-0.03125,1.00488,0.21362,-0.36621,0.00000,14018
27.42,0.06445,-0.03076,1.00439,0.09155,-0.39673,-0.03052,14024
27.42,0.06445,-0.03076,1.00439,0.03052,-0.33569,-0.09155,14029
27.41,0.06494,-0.02979,1.00342,0.06104,-0.36621,0.00000,14035
27.41,0.06494,-0.02979,1.00342,0.09155,-0.36621,-0.18311,14040
27.41,0.06445,-0.02979,1.00098,0.15259,-0.30518,-0.12207,14046
27.43,0.06445,-0.02979,1.00098,0.03052,-0.30518,-0.06104,14051
27.43,0.06396,-0.03027,0.99951,0.06104,-0.33569,-0.09155,14057
27.43,0.06445,-0.03076,0.99902,0.03052,-0.30518,-0.09155,14062
27.43,0.06445,-0.03076,0.99902,0.12207,-0.33569,-0.03052,14068
27.48,0.06494,-0.03125,0.99951,0.06104,-0.24414,0.00000,14074
27.48,0.06494,-0.03125,0.99951,0.03052,-0.30518,-0.06104,14079
27.45,0.06494,-0.03174,1.00049,0.06104,-0.33569,-0.18311,14085
27.43,0.06494,-0.03174,1.00049,0.00000,-0.33569,-0.06104,14090
27.43,0.06494,-0.03125,1.00098,0.03052,-0.27466,0.03052,14096
27.43,0.06494,-0.03125,1.00098,0.06104,-0.27466,-0.12207,14101
27.43,0.06445,-0.03027,1.00098,-0.06104,-0.36621,-0.03052,14107
27.38,0.06494,-0.03027,1.00195,-0.03052,-0.33569,-0.12207,14112
27.38,0.06494,-0.03027,1.00195,0.06104,-0.24414,-0.06104,14118
27.41,0.06543,-0.03125,1.00293,0.03052,-0.33569,-0.09155,14124
27.41,0.06543,-0.03125,1.00293,0.06104,-0.27466,-0.09155,14129
27.44,0.06543,-0.03125,1.00293,0.09155,-0.30518,-0.03052,14135
27.44,0.06543,-0.03125,1.00293,0.06104,-0.30518,0.03052,14140
27.44,0.06592,-0.03076,1.00244,-0.03052,-0.36621,-0.03052,14146
27.43,0.06592,-0.03076,1.00244,0.03052,-0.27466,-0.15259,14151
27.43,0.06543,-0.03027,1.00195,-0.03052,-0.24414,-0.03052,14157
27.43,0.06494,-0.03076,1.00146,-0.06104,-0.27466,-0.09155,14162
27.43,0.06494,-0.03076,1.00146,0.03052,-0.33569,-0.15259,14168
27.42,0.06445,-0.03125,1.00146,0.12207,-0.30518,-0.06104,14174
27.42,0.06445,-0.03125,1.00146,0.09155,-0.30518,-0.09155,14179
27.43,0.06445,-0.03076,1.00049,0.06104,-0.27466,-0.09155,14185
27.42,0.06445,-0.03076,1.00049,0.09155,-0.30518,0.00000,14190
27.42,0.06445,-0.02979,0.99951,0.00000,-0.24414,-0.03052,14196
27.46,0.06494,-0.02979,0.99951,0.15259,-0.30518,-0.18311,14201
27.46,0.06494,-0.02979,0.99951,0.15259,-0.24414,-0.21362,14207
27.43,0.06543,-0.03027,1.00049,0.12207,-0.27466,-0.06104,14212
27.43,0.06543,-0.03027,1.00049,0.09155,-0.21362,-0.18311,14218
27.43,0.06445,-0.03027,1.00146,0.12207,-0.30518,-0.09155,14224
27.43,0.06445,-0.03027,1.00146,0.00000,-0.33569,-0.03052,14229
27.41,0.06445,-0.03076,1.00195,0.12207,-0.30518,0.00000,14235
27.43,0.06445,-0.03076,1.00195,0.15259,-0.30518,-0.09155,14240
27.43,0.06494,-0.03125,1.00195,-0.03052,-0.30518,-0.12207,14246
27.45,0.06445,-0.03125,1.00195,-0.03052,-0.27466,0.00000,14251
27.45,0.06445,-0.03125,1.00195,0.03052,-0.39673,-0.03052,14257
27.41,0.06445,-0.03125,1.00146,0.00000,-0.24414,-0.15259,14262
27.41,0.06445,-0.03125,1.00146,-0.09155,-0.27466,-0.06104,14268
27.45,0.06494,-0.03125,1.00049,0.09155,-0.33569,-0.03052,14274
27.43,0.06494,-0.03125,1.00049,0.18311,-0.36621,-0.03052,14279
27.43,0.06494,-0.03125,0.99854,0.09155,-0.27466,-0.03052,14285
27.45,0.06494,-0.03125,0.99854,0.12207,-0.30518,-0.06104,14290
27.45,0.06396,-0.03125,0.99658,0.03052,-0.36621,-0.09155,14296
27.39,0.06494,-0.02930,1.00000,-0.06104,-0.42725,0.03052,14301
27.39,0.06494,-0.02930,1.00000,-0.12207,-0.27466,0.03052,14307
27.42,0.06641,-0.02881,1.00439,-0.18311,-0.24414,0.00000,14312
27.42,0.06641,-0.02881,1.00439,0.00000,-0.24414,-0.15259,14318
27.45,0.06445,-0.03125,1.00293,0.24414,-0.36621,-0.12207,14324
27.40,0.06445,-0.03125,1.00293,0.18311,-0.39673,-0.21362,14329
27.40,0.06396,-0.03320,1.00146,0.06104,-0.45776,-0.09155,14335
27.43,0.06396,-0.03320,1.00146,-0.09155,-0.21362,-0.09155,14340
27.43,0.06641,-0.03174,1.00439,-0.06104,-0.12207,-0.03052,14346
27.39,0.06641,-0.02979,1.00537,0.00000,-0.24414,-0.06104,14352
27.39,0.06641,-0.02979,1.00537,0.15259,-0.30518,-0.09155,14357
27.43,0.06396,-0.02881,1.00439,0.12207,-0.39673,-0.09155,14363
27.43,0.06396,-0.02881,1.00439,0.06104,-0.30518,-0.12207,14368
27.45,0.06396,-0.02930,1.00342,-0.06104,-0.18311,-0.09155,14374
27.44,0.06396,-0.02930,1.00342,0.00000,-0.36621,-0.12207,14379
27.44,0.06445,-0.03076,1.00244,0.03052,-0.33569,-0.03052,14385
27.43,0.06445,-0.03076,1.00049,0.06104,-0.27466,-0.06104,14390
27.43,0.06445,-0.03076,1.00049,0.03052,-0.30518,-0.09155,14396
27.43,0.06348,-0.03027,0.99902,0.03052,-0.15259,-0.06104,14402
27.43,0.06348,-0.03027,0.99902,0.00000,-0.15259,-0.09155,14407
27.43,0.06348,-0.03027,0.99805,0.03052,-0.36621,-0.09155,14413
27.43,0.06348,-0.03027,0.99805,0.06104,-0.33569,-0.06104,14418
27.46,0.06445,-0.03027,0.99951,0.00000,-0.45776,0.00000,14424
27.44,0.06445,-0.03027,0.99951,0.06104,-0.21362,0.00000,14429
27.44,0.06494,-0.02979,1.00098,-0.03052,-0.15259,-0.03052,14435
27.43,0.06543,-0.03076,1.00195,-0.03052,-0.33569,0.03052,14440
27.43,0.06543,-0.03076,1.00195,0.12207,-0.36621,0.09155,14446
27.44,0.06543,-0.03271,1.00195,0.15259,-0.33569,0.00000,14451
27.44,0.06543,-0.03271,1.00195,0.15259,-0.39673,-0.03052,14457
27.47,0.06543,-0.03320,1.00244,0.12207,-0.24414,0.03052,14462
27.47,0.06543,-0.03320,1.00244,0.00000,-0.30518,-0.12207,14468
27.42,0.06445,-0.03125,1.00244,0.09155,-0.30518,-0.06104,14473
27.45,0.06445,-0.03125,1.00244,0.06104,-0.21362,-0.09155,14479
27.45,0.06348,-0.02979,1.00195,0.06104,-0.30518,-0.09155,14485
27.43,0.06445,-0.02881,1.00195,0.00000,-0.30518,-0.09155,14490
27.43,0.06445,-0.02881,1.00195,0.00000,-0.39673,0.03052,14496
27.44,0.06445,-0.02930,1.00146,0.03052,-0.36621,-0.18311,14501
27.44,0.06445,-0.02930,1.00146,0.00000,-0.39673,-0.15259,14507
27.40,0.06494,-0.03076,1.00146,0.12207,-0.42725,-0.09155,14512
27.40,0.06494,-0.03076,1.00146,0.15259,-0.30518,0.00000,14518
27.44,0.06543,-0.03174,1.00146,0.00000,-0.18311,-0.03052,14523
27.46,0.06543,-0.03174,1.00146,-0.06104,-0.24414,-0.06104,14529
27.46,0.06543,-0.03223,1.00195,-0.06104,-0.27466,-0.03052,14534
27.46,0.06494,-0.03174,1.00293,0.09155,-0.36621,0.03052,14540
27.46,0.06494,-0.03174,1.00293,0.06104,-0.33569,-0.06104,14545
27.45,0.06445,-0.03076,1.00244,0.03052,-0.30518,-0.09155,14551
27.45,0.06445,-0.03076,1.00244,0.03052,-0.24414,0.03052,14557
27.44,0.06494,-0.03027,1.00146,0.03052,-0.33569,-0.06104,14562
27.44,0.06494,-0.03027,1.00146,0.18311,-0.36621,-0.09155,14568
27.45,0.06592,-0.03076,1.00195,0.18311,-0.30518,-0.06104,14573
27.43,0.06592,-0.03076,1.00195,0.00000,-0.30518,-0.06104,14579
27.43,0.06592,-0.03125,1.00293,0.03052,-0.21362,-0.09155,14584
27.45,0.06494,-0.03076,1.00244,0.06104,-0.33569,-0.09155,14590
27.45,0.06494,-0.03076,1.00244,0.09155,-0.30518,-0.06104,14595
27.43,0.06396,-0.02979,1.00146,0.09155,-0.27466,0.03052,14601
27.43,0.06396,-0.02979,1.00146,0.03052,-0.30518,-0.06104,14606
27.41,0.06348,-0.02930,1.00000,0.00000,-0.27466,-0.03052,14612
27.41,0.06348,-0.02930,1.00000,0.06104,-0.36621,-0.09155,14617
27.41,0.06348,-0.02979,1.00049,0.15259,-0.36621,-0.09155,14623
27.42,0.06348,-0.02979,1.00049,0.09155,-0.30518,-0.09155,14629
27.42,0.06445,-0.03125,1.00098,0.03052,-0.30518,-0.06104,14634
27.42,0.06543,-0.03223,1.00098,0.03052,-0.30518,-0.12207,14640
27.42,0.06543,-0.03223,1.00098,0.06104,-0.21362,-0.09155,14645
27.46,0.06494,-0.03223,1.00000,0.03052,-0.18311,-0.06104,14651
27.46,0.06494,-0.03223,1.00000,0.18311,-0.36621,-0.06104,14656
27.47,0.06396,-0.03076,1.00000,0.00000,-0.27466,-0.03052,14662
27.44,0.06396,-0.03076,1.00000,0.00000,-0.30518,0.03052,14667
27.44,0.06299,-0.02979,1.00098,0.06104,-0.33569,0.03052,14673
27.45,0.06299,-0.02979,1.00098,0.09155,-0.27466,-0.15259,14678
27.45,0.06348,-0.02979,1.00244,0.03052,-0.36621,-0.03052,14684
27.42,0.06494,-0.03076,1.00293,0.00000,-0.33569,-0.06104,14689
27.42,0.06494,-0.03076,1.00293,0.03052,-0.33569,0.03052,14695
27.45,0.06641,-0.03174,1.00244,-0.06104,-0.27466,-0.09155,14701
27.45,0.06641,-0.03174,1.00244,0.03052,-0.24414,-0.09155,14706
27.42,0.06641,-0.03174,1.00098,0.12207,-0.30518,-0.03052,14712
27.45,0.06641,-0.03174,1.00098,0.00000,-0.24414,-0.03052,14717
27.45,0.06543,-0.03125,1.00049,0.15259,-0.30518,-0.15259,14723
27.45,0.06543,-0.03125,1.00049,0.12207,-0.39673,-0.09155,14728
27.45,0.06445,-0.03027,1.00000,-0.03052,-0.30518,-0.18311,14734
27.42,0.06445,-0.02979,1.00098,0.15259,-0.21362,-0.15259,14740
27.42,0.06445,-0.02979,1.00098,0.03052,-0.30518,-0.09155,14745
27.41,0.06543,-0.03027,1.00098,0.03052,-0.24414,-0.06104,14751
27.41,0.06543,-0.03027,1.00098,0.03052,-0.33569,-0.09155,14756
27.47,0.06592,-0.03174,1.00049,0.00000,-0.42725,-0.12207,14762
27.45,0.06592,-0.03174,1.00049,0.06104,-0.30518,-0.15259,14767
27.45,0.06592,-0.03271,1.00146,0.09155,-0.24414,-0.06104,14773
27.43,0.06592,-0.03271,1.00146,0.03052,-0.30518,-0.06104,14778
27.43,0.06494,-0.03174,1.00342,0.03052,-0.24414,-0.09155,14784
27.44,0.06445,-0.03027,1.00391,0.03052,-0.27466,-0.09155,14790
27.44,0.06445,-0.03027,1.00391,0.06104,-0.27466,-0.03052,14795
27.42,0.06396,-0.02930,1.00342,0.15259,-0.30518,-0.09155,14801
27.42,0.06396,-0.02930,1.00342,-0.03052,-0.27466,-0.06104,14806
27.47,0.06348,-0.02979,1.00244,-0.03052,-0.42725,-0.03052,14812
27.47,0.06348,-0.02979,1.00244,0.09155,-0.33569,-0.09155,14817
27.47,0.06348,-0.03076,1.00146,0.09155,-0.21362,-0.09155,14823
27.46,0.06445,-0.03174,1.00049,0.00000,-0.27466,-0.03052,14829
27.46,0.06445,-0.03174,1.00049,0.06104,-0.18311,-0.09155,14834
27.42,0.06494,-0.03125,1.00000,-0.03052,-0.15259,-0.06104,14840
27.42,0.06494,-0.03125,1.00000,0.03052,-0.21362,-0.12207,14845
27.44,0.06494,-0.03027,1.00000,0.09155,-0.27466,-0.12207,14851
27.44,0.06494,-0.03027,1.00000,0.03052,-0.33569,0.00000,14856
27.45,0.06494,-0.02930,1.00098,0.03052,-0.33569,-0.12207,14862
27.43,0.06494,-0.02930,1.00098,0.09155,-0.36621,-0.03052,14867
27.43,0.06445,-0.03027,1.00195,0.03052,-0.36621,0.06104,14873
27.45,0.06445,-0.03174,1.00146,0.09155,-0.30518,-0.18311,14878
27.45,0.06445,-0.03174,1.00146,0.03052,-0.27466,-0.03052,14884
27.43,0.06445,-0.03223,1.00098,0.00000,-0.21362,0.00000,14890
27.43,0.06445,-0.03223,1.00098,0.00000,-0.21362,-0.12207,14895
27.46,0.06543,-0.03076,1.00146,0.06104,-0.33569,-0.03052,14901
27.46,0.06543,-0.03076,1.00146,0.09155,-0.21362,-0.09155,14906
27.45,0.06543,-0.03027,1.00195,0.18311,-0.36621,0.00000,14912
27.42,0.06543,-0.03027,1.00195,0.15259,-0.30518,-0.06104,14917
27.42,0.06543,-0.03027,1.00146,0.09155,-0.27466,-0.15259,14923
27.42,0.06494,-0.03076,1.00049,0.06104,-0.33569,-0.12207,14928
27.42,0.06494,-0.03076,1.00049,0.09155,-0.24414,-0.09155,14934
27.44,0.06494,-0.03125,1.00049,0.09155,-0.30518,-0.09155,14939
27.44,0.06494,-0.03125,1.00049,0.12207,-0.39673,-0.15259,14945
27.43,0.06543,-0.03076,1.00146,0.03052,-0.21362,-0.03052,14950
27.43,0.06543,-0.03076,1.00146,0.03052,-0.21362,-0.06104,14956
27.41,0.06592,-0.03027,1.00195,0.15259,-0.27466,-0.09155,14962
27.43,0.06592,-0.03027,1.00195,0.15259,-0.30518,0.09155,14967
27.43,0.06494,-0.03027,1.00146,0.09155,-0.27466,0.00000,14973
27.41,0.06445,-0.03027,1.00049,0.06104,-0.27466,-0.12207,14978
27.41,0.06445,-0.03027,1.00049,0.06104,-0.27466,-0.06104,14984
27.44,0.06445,-0.03076,1.00049,0.03052,-0.27466,-0.03052,14989
27.44,0.06445,-0.03076,1.00049,0.03052,-0.42725,-0.09155,14995
27.44,0.06445,-0.03076,1.00146,0.06104,-0.18311,0.00000,15000
27.44,0.06445,-0.03076,1.00146,0.09155,-0.24414,-0.12207,15006
27.46,0.06494,-0.03076,1.00195,0.18311,-0.33569,-0.09155,15011
27.44,0.06494,-0.03076,1.00195,0.12207,-0.33569,-0.06104,15017
27.44,0.06494,-0.03125,1.00195,0.12207,-0.30518,-0.09155,15022
27.41,0.06543,-0.03125,1.00146,0.06104,-0.42725,-0.09155,15028
27.41,0.06543,-0.03125,1.00146,0.12207,-0.21362,0.03052,15033
27.44,0.06445,-0.03076,1.00098,0.12207,-0.33569,0.06104,15039
27.44,0.06445,-0.03076,1.00098,0.00000,-0.30518,-0.12207,15044
27.42,0.06299,-0.02979,1.00049,0.00000,-0.30518,-0.09155,15050
27.42,0.06299,-0.02979,1.00049,0.00000,-0.33569,-0.06104,15056
27.45,0.06299,-0.03027,1.00049,0.09155,-0.39673,-0.09155,15061
27.44,0.06299,-0.03027,1.00049,0.03052,-0.33569,-0.09155,15067
27.44,0.06396,-0.03027,1.00000,-0.03052,-0.33569,-0.03052,15072
27.46,0.06445,-0.03027,1.00000,0.09155,-0.30518,-0.09155,15078
27.46,0.06445,-0.03027,1.00000,0.12207,-0.39673,-0.12207,15083
27.47,0.06445,-0.03076,1.00000,0.00000,-0.39673,-0.06104,15089
27.47,0.06445,-0.03076,1.00000,0.06104,-0.33569,-0.18311,15094
27.41,0.06445,-0.03125,1.00000,0.09155,-0.42725,-0.06104,15100
27.44,0.06445,-0.03125,1.00000,0.12207,-0.30518,-0.03052,15106
27.44,0.06543,-0.03125,1.00049,0.15259,-0.30518,-0.09155,15111
27.42,0.06543,-0.03125,1.00049,0.06104,-0.33569,-0.15259,15117
27.42,0.06592,-0.03076,1.00195,-0.03052,-0.18311,-0.09155,15122
27.44,0.06543,-0.03076,1.00342,0.00000,-0.33569,-0.03052,15128
27.44,0.06543,-0.03076,1.00342,0.09155,-0.30518,-0.06104,15133
27.46,0.06445,-0.03076,1.00244,0.09155,-0.39673,-0.06104,15139
27.46,0.06445,-0.03076,1.00244,0.00000,-0.30518,-0.09155,15144
27.46,0.06445,-0.03076,1.00098,0.03052,-0.24414,-0.03052,15150
27.43,0.06445,-0.03076,1.00098,0.06104,-0.24414,-0.03052,15156
27.43,0.06445,-0.03027,1.00000,0.06104,-0.21362,-0.06104,15161
27.45,0.06445,-0.03027,1.00000,0.06104,-0.24414,-0.09155,15167
27.45,0.06396,-0.02979,1.00049,0.00000,-0.33569,-0.15259,15172
27.43,0.06396,-0.02930,1.00098,0.12207,-0.33569,-0.06104,15178
27.43,0.06396,-0.02930,1.00098,0.03052,-0.24414,-0.06104,15183
27.42,0.06445,-0.03027,1.00098,-0.03052,-0.27466,-0.12207,15189
27.42,0.06445,-0.03027,1.00098,0.09155,-0.42725,-0.06104,15195
27.44,0.06494,-0.03174,1.00049,0.09155,-0.27466,-0.06104,15200
27.44,0.06494,-0.03174,1.00049,0.09155,-0.36621,-0.09155,15206
27.44,0.06494,-0.03271,1.00049,0.03052,-0.36621,-0.03052,15211
27.43,0.06494,-0.03174,1.00146,0.09155,-0.24414,0.06104,15217
27.43,0.06494,-0.03174,1.00146,-0.06104,-0.21362,-0.03052,15222
27.43,0.06445,-0.03076,1.00195,0.00000,-0.33569,-0.03052,15228
27.43,0.06445,-0.03076,1.00195,0.09155,-0.39673,-0.03052,15233
27.44,0.06445,-0.03076,1.00244,0.06104,-0.36621,-0.12207,15239
27.44,0.06445,-0.03076,1.00244,0.09155,-0.21362,-0.12207,15245
27.44,0.06494,-0.03027,1.00342,0.06104,-0.27466,-0.06104,15250
27.45,0.06494,-0.03027,1.00342,-0.06104,-0.33569,-0.03052,15256
27.45,0.06543,-0.03027,1.00293,0.03052,-0.21362,-0.09155,15261
27.42,0.06543,-0.03076,1.00146,0.06104,-0.21362,-0.06104,15267
27.42,0.06543,-0.03076,1.00146,0.06104,-0.18311,-0.03052,15272
27.44,0.06543,-0.03125,1.00098,0.03052,-0.24414,-0.09155,15278
27.44,0.06543,-0.03125,1.00098,-0.03052,-0.36621,0.00000,15283
27.44,0.06494,-0.03174,1.00146,0.15259,-0.36621,-0.18311,15289
27.45,0.06494,-0.03174,1.00146,0.15259,-0.24414,-0.09155,15295
27.45,0.06494,-0.03076,1.00195,0.03052,-0.21362,0.03052,15300
27.44,0.06494,-0.03076,1.00195,0.03052,-0.24414,0.03052,15306
27.44,0.06543,-0.03027,1.00000,0.00000,-0.42725,-0.03052,15311
27.45,0.06494,-0.03125,0.99756,-0.03052,-0.36621,-0.03052,15317
27.45,0.06494,-0.03125,0.99756,0.12207,-0.33569,-0.06104,15322
27.43,0.06494,-0.03125,0.99756,0.18311,-0.30518,-0.09155,15328
27.43,0.06494,-0.03125,0.99756,0.09155,-0.30518,0.03052,15333
27.43,0.06494,-0.03076,0.99902,0.03052,-0.21362,0.00000,15339
27.42,0.06494,-0.03076,0.99902,0.06104,-0.21362,-0.06104,15344
27.42,0.06445,-0.03076,1.00000,0.06104,-0.27466,-0.06104,15350
27.41,0.06445,-0.03076,1.00000,0.09155,-0.36621,-0.09155,15355
27.41,0.06494,-0.03076,1.00000,0.15259,-0.30518,-0.09155,15361
27.45,0.06494,-0.03076,1.00049,0.06104,-0.33569,-0.09155,15366
27.45,0.06494,-0.03076,1.00049,-0.03052,-0.33569,-0.15259,15372
27.44,0.06494,-0.03076,1.00195,0.09155,-0.30518,0.06104,15378
27.44,0.06494,-0.03076,1.00195,0.15259,-0.30518,-0.09155,15383
27.44,0.06445,-0.03076,1.00293,0.09155,-0.27466,-0.18311,15389
27.45,0.06445,-0.03076,1.00293,0.06104,-0.30518,-0.03052,15394
27.45,0.06396,-0.03076,1.00391,0.12207,-0.30518,0.00000,15400
27.47,0.06396,-0.03076,1.00391,0.00000,-0.33569,-0.15259,15405
27.47,0.06396,-0.03027,1.00293,0.12207,-0.27466,0.00000,15411
27.45,0.06396,-0.02979,1.00195,0.09155,-0.27466,-0.12207,15416
27.45,0.06396,-0.02979,1.00195,0.15259,-0.30518,-0.15259,15422
27.43,0.06396,-0.02979,1.00195,0.12207,-0.18311,-0.12207,15427
27.43,0.06396,-0.02979,1.00195,0.15259,-0.27466,0.00000,15433
27.45,0.06494,-0.03076,1.00146,0.12207,-0.21362,-0.06104,15438
27.43,0.06494,-0.03076,1.00146,0.06104,-0.36621,-0.09155,15444
27.43,0.06543,-0.03076,1.00098,0.06104,-0.30518,-0.18311,15450
27.43,0.06543,-0.03076,1.00098,0.06104,-0.30518,-0.15259,15455
27.43,0.06543,-0.03076,1.00000,0.06104,-0.33569,-0.06104,15461
27.46,0.06494,-0.03027,1.00000,0.03052,-0.24414,-0.09155,15466
27.46,0.06494,-0.03027,1.00000,0.00000,-0.27466,-0.03052,15472
27.43,0.06494,-0.02979,1.00049,0.06104,-0.30518,-0.03052,15477
27.43,0.06494,-0.02979,1.00049,0.00000,-0.42725,0.00000,15483
27.44,0.06494,-0.02979,1.00195,-0.06104,-0.33569,-0.03052,15488
27.45,0.06494,-0.02979,1.00195,0.12207,-0.27466,-0.12207,15494
27.45,0.06494,-0.02979,1.00293,0.12207,-0.42725,-0.03052,15499
27.46,0.06494,-0.02979,1.00293,0.09155,-0.33569,0.00000,15505
27.46,0.06494,-0.03027,1.00244,0.06104,-0.27466,-0.12207,15511
27.42,0.06445,-0.03076,1.00146,0.09155,-0.33569,-0.12207,15516
27.42,0.06445,-0.03076,1.00146,0.00000,-0.33569,0.00000,15522
27.45,0.06445,-0.03076,1.00098,0.00000,-0.24414,-0.15259,15527
27.45,0.06445,-0.03076,1.00098,0.12207,-0.24414,-0.09155,15533
27.46,0.06543,-0.03027,1.00049,0.12207,-0.36621,-0.09155,15538
27.45,0.06543,-0.03027,1.00049,0.00000,-0.30518,-0.06104,15544
27.45,0.06641,-0.03076,1.00049,0.12207,-0.33569,-0.03052,15549
27.44,0.06641,-0.03076,1.00049,0.15259,-0.24414,-0.12207,15555
27.44,0.06592,-0.03125,1.00098,0.06104,-0.21362,0.00000,15560
27.43,0.06396,-0.03125,1.00146,0.15259,-0.27466,-0.12207,15566
27.43,0.06396,-0.03125,1.00146,0.06104,-0.30518,-0.03052,15571
27.42,0.06348,-0.03076,1.00146,0.00000,-0.24414,-0.12207,15577
27.42,0.06348,-0.03076,1.00146,-0.03052,-0.33569,-0.03052,15582
27.45,0.06396,-0.03076,1.00146,0.00000,-0.33569,-0.06104,15588
27.44,0.06396,-0.03076,1.00146,0.12207,-0.30518,-0.06104,15594
27.44,0.06445,-0.03125,1.00098,0.00000,-0.30518,-0.15259,15599
27.42,0.06445,-0.03125,1.00098,0.00000,-0.30518,-0.06104,15605
27.42,0.06494,-0.03223,1.00146,0.12207,-0.24414,-0.03052,15610
27.46,0.06592,-0.03223,1.00244,0.09155,-0.33569,-0.03052,15616
27.46,0.06592,-0.03223,1.00244,0.06104,-0.30518,-0.06104,15621
27.47,0.06592,-0.03174,1.00342,0.00000,-0.21362,-0.03052,15627
27.47,0.06592,-0.03174,1.00342,0.15259,-0.18311,-0.06104,15633
27.42,0.06592,-0.03076,1.00244,0.03052,-0.24414,-0.15259,15638
27.45,0.06592,-0.03076,1.00244,0.03052,-0.33569,-0.09155,15644
27.45,0.06543,-0.02979,1.00195,0.03052,-0.21362,0.03052,15649
27.46,0.06445,-0.03027,1.00146,0.06104,-0.30518,-0.18311,15655
27.46,0.06445,-0.03027,1.00146,-0.03052,-0.36621,-0.12207,15660
27.44,0.06348,-0.03125,1.00146,-0.03052,-0.36621,-0.15259,15666
27.44,0.06348,-0.03125,1.00146,0.06104,-0.42725,-0.03052,15671
27.44,0.06299,-0.03223,1.00195,0.09155,-0.27466,-0.15259,15677
27.44,0.06299,-0.03223,1.00195,0.09155,-0.39673,-0.06104,15683
27.43,0.06396,-0.03174,1.00146,0.03052,-0.33569,-0.09155,15688
27.41,0.06396,-0.03174,1.00146,-0.06104,-0.27466,-0.12207,15694
27.41,0.06494,-0.03125,1.00098,0.09155,-0.30518,-0.03052,15699
27.44,0.06592,-0.03076,1.00195,0.00000,-0.36621,-0.06104,15705
27.44,0.06592,-0.03076,1.00195,0.09155,-0.33569,-0.03052,15710
27.43,0.06494,-0.03076,1.00293,0.12207,-0.30518,-0.12207,15716
27.43,0.06494,-0.03076,1.00293,-0.06104,-0.27466,-0.09155,15722
27.44,0.06445,-0.03125,1.00342,0.03052,-0.21362,-0.09155,15727
27.44,0.06445,-0.03125,1.00342,0.00000,-0.33569,-0.09155,15733
27.44,0.06494,-0.03125,1.00342,0.00000,-0.21362,-0.06104,15738
27.42,0.06494,-0.03125,1.00342,0.09155,-0.24414,-0.03052,15744
27.42,0.06445,-0.03076,1.00244,0.09155,-0.30518,-0.09155,15749
27.48,0.06445,-0.03076,1.00146,0.09155,-0.30518,-0.06104,15755
27.48,0.06445,-0.03076,1.00146,0.06104,-0.24414,-0.06104,15761
27.44,0.06396,-0.03076,1.00098,0.00000,-0.30518,-0.03052,15766
27.44,0.06396,-0.03076,1.00098,0.09155,-0.18311,-0.03052,15772
27.44,0.06348,-0.03076,1.00098,0.06104,-0.36621,-0.15259,15777
27.46,0.06348,-0.03076,1.00098,0.00000,-0.33569,-0.12207,15783
27.46,0.06396,-0.03174,1.00098,0.06104,-0.27466,-0.03052,15788
27.47,0.06396,-0.03174,1.00098,0.09155,-0.36621,-0.09155,15794
27.47,0.06396,-0.03223,1.00098,0.06104,-0.27466,-0.15259,15799
27.42,0.06396,-0.03174,1.00098,0.06104,-0.30518,-0.09155,15805
27.42,0.06396,-0.03174,1.00098,0.12207,-0.24414,0.00000,15810
27.43,0.06494,-0.03125,1.00195,0.09155,-0.30518,-0.03052,15816
27.43,0.06494,-0.03125,1.00195,0.00000,-0.24414,-0.18311,15822
27.43,0.06494,-0.03174,1.00244,0.09155,-0.36621,-0.12207,15827
27.42,0.06494,-0.03174,1.00244,0.12207,-0.39673,-0.06104,15833
27.42,0.06543,-0.03223,1.00195,0.15259,-0.27466,-0.09155,15838
27.45,0.06543,-0.03223,1.00195,0.09155,-0.27466,-0.06104,15844
27.45,0.06494,-0.03174,1.00146,0.06104,-0.36621,-0.09155,15849
27.42,0.06445,-0.03076,1.00146,0.03052,-0.27466,-0.06104,15855
27.42,0.06445,-0.03076,1.00146,0.06104,-0.27466,-0.03052,15860
27.44,0.06445,-0.03076,1.00098,0.03052,-0.15259,-0.06104,15866
27.44,0.06445,-0.03076,1.00098,0.06104,-0.30518,-0.15259,15871
27.47,0.06494,-0.03125,0.99951,-0.03052,-0.33569,-0.15259,15877
27.44,0.06494,-0.03125,0.99951,0.06104,-0.27466,-0.06104,15883
27.44,0.06445,-0.03076,0.99658,0.09155,-0.27466,-0.09155,15888
27.43,0.06445,-0.02930,0.99658,0.03052,-0.27466,-0.09155,15894
27.43,0.06445,-0.02930,0.99658,0.00000,-0.18311,-0.09155,15899
27.43,0.06543,-0.02832,1.00049,0.00000,-0.24414,-0.09155,15905
27.43,0.06543,-0.02832,1.00049,0.09155,-0.30518,-0.03052,15910
27.43,0.06445,-0.03027,1.00391,0.00000,-0.30518,-0.15259,15916
27.43,0.06445,-0.03027,1.00391,0.09155,-0.39673,-0.21362,15922
27.47,0.06348,-0.03174,1.00488,0.09155,-0.39673,-0.06104,15927
27.44,0.06348,-0.03174,1.00488,0.09155,-0.33569,-0.06104,15933
27.44,0.06494,-0.03174,1.00635,0.06104,-0.24414,-0.06104,15938
27.44,0.06787,-0.03125,1.00732,0.00000,-0.18311,-0.06104,15944
27.44,0.06787,-0.03125,1.00732,0.12207,-0.24414,0.00000,15949
27.45,0.06689,-0.03027,1.00635,0.21362,-0.42725,0.00000,15955
27.45,0.06689,-0.03027,1.00635,0.12207,-0.33569,-0.12207,15960
27.44,0.06494,-0.03027,1.00342,0.03052,-0.24414,-0.12207,15966
27.44,0.06494,-0.03027,1.00342,-0.06104,-0.24414,-0.06104,15971
27.43,0.06396,-0.03027,1.00146,0.03052,-0.21362,-0.03052,15977
27.40,0.06396,-0.03027,1.00146,0.06104,-0.30518,0.00000,15982
27.40,0.06445,-0.03076,0.99951,-0.06104,-0.21362,-0.03052,15988
27.45,0.06592,-0.03125,0.99707,0.00000,-0.30518,-0.12207,15994
27.45,0.06592,-0.03125,0.99707,0.06104,-0.27466,-0.18311,15999
27.46,0.06592,-0.03223,0.99561,0.18311,-0.21362,-0.06104,16005
27.46,0.06592,-0.03223,0.99561,0.06104,-0.21362,0.00000,16010
27.44,0.06445,-0.03125,0.99658,0.09155,-0.30518,0.00000,16016
27.43,0.06445,-0.03125,0.99658,0.12207,-0.42725,-0.09155,16021
27.43,0.06445,-0.02979,1.00000,0.09155,-0.27466,-0.09155,16027
27.44,0.06445,-0.02979,1.00000,0.00000,-0.21362,-0.27466,16032
27.44,0.06494,-0.02979,1.00244,0.12207,-0.42725,-0.15259,16038
27.47,0.06445,-0.03125,1.00439,0.06104,-0.39673,-0.12207,16043
27.47,0.06445,-0.03125,1.00439,0.06104,-0.39673,-0.09155,16049
27.44,0.06494,-0.03271,1.00488,0.03052,-0.21362,-0.06104,16055
27.44,0.06494,-0.03271,1.00488,-0.03052,-0.30518,0.06104,16060
27.45,0.06543,-0.03223,1.00488,-0.03052,-0.30518,-0.09155,16066
27.44,0.06543,-0.03223,1.00488,0.03052,-0.33569,-0.03052,16071
27.44,0.06445,-0.03076,1.00293,0.09155,-0.39673,-0.06104,16077
27.42,0.06445,-0.03076,1.00293,0.15259,-0.27466,-0.12207,16082
27.42,0.06348,-0.02930,1.00146,0.09155,-0.27466,-0.09155,16088
27.46,0.06348,-0.02930,1.00000,0.00000,-0.24414,-0.12207,16093
27.46,0.06348,-0.02930,1.00000,0.06104,-0.30518,-0.21362,16099
27.41,0.06396,-0.02930,0.99854,0.12207,-0.45776,-0.12207,16105
27.41,0.06396,-0.02930,0.99854,0.09155,-0.30518,-0.03052,16110
27.44,0.06494,-0.02979,0.99805,0.09155,-0.24414,-0.06104,16116
27.47,0.06494,-0.02979,0.99805,0.00000,-0.36621,-0.06104,16121
27.47,0.06543,-0.03027,0.99805,0.09155,-0.27466,0.00000,16127
27.47,0.06543,-0.03027,0.99805,0.12207,-0.27466,-0.12207,16132
27.47,0.06494,-0.03076,1.00000,0.12207,-0.36621,0.00000,16138
27.45,0.06445,-0.03076,1.00195,0.15259,-0.39673,0.00000,16143
27.45,0.06445,-0.03076,1.00195,0.15259,-0.36621,-0.03052,16149
27.43,0.06494,-0.03076,1.00342,-0.06104,-0.24414,0.00000,16154
27.43,0.06494,-0.03076,1.00342,0.09155,-0.36621,-0.21362,16160
27.44,0.06543,-0.03174,1.00488,0.15259,-0.39673,-0.06104,16165
27.46,0.06543,-0.03174,1.00488,0.06104,-0.39673,0.00000,16171
27.46,0.06592,-0.03223,1.00537,0.09155,-0.27466,-0.06104,16176
27.43,0.06592,-0.03223,1.00537,0.00000,-0.30518,-0.06104,16182
27.43,0.06494,-0.03125,1.00391,0.09155,-0.30518,-0.06104,16187
27.45,0.06396,-0.03027,1.00244,0.18311,-0.39673,-0.09155,16193
27.45,0.06396,-0.03027,1.00244,0.06104,-0.48828,-0.03052,16199
27.48,0.06348,-0.02930,1.00146,0.06104,-0.27466,-0.03052,16204
27.48,0.06348,-0.02930,1.00146,0.06104,-0.27466,-0.12207,16210
27.45,0.06396,-0.02930,1.00098,0.09155,-0.39673,-0.06104,16215
27.46,0.06396,-0.02930,1.00098,0.06104,-0.39673,-0.06104,16221
27.46,0.06396,-0.03027,0.99951,0.03052,-0.27466,-0.12207,16226
27.44,0.06396,-0.03027,0.99951,0.06104,-0.33569,-0.06104,16232
27.44,0.06396,-0.03174,0.99902,0.00000,-0.24414,-0.06104,16237
27.43,0.06445,-0.03174,1.00146,0.00000,-0.36621,-0.15259,16243
27.43,0.06445,-0.03174,1.00146,0.06104,-0.36621,-0.09155,16249
27.46,0.06445,-0.03125,1.00342,0.15259,-0.24414,-0.12207,16254
27.46,0.06445,-0.03125,1.00342,0.09155,-0.36621,-0.06104,16260
27.44,0.06445,-0.03076,1.00439,0.06104,-0.21362,-0.09155,16265
27.45,0.06445,-0.03076,1.00439,0.03052,-0.27466,-0.03052,16271
27.45,0.06445,-0.03076,1.00391,0.03052,-0.33569,0.03052,16276
27.47,0.06445,-0.03125,1.00244,0.15259,-0.33569,0.00000,16282
27.47,0.06445,-0.03125,1.00244,0.03052,-0.33569,-0.03052,16287
27.45,0.06494,-0.03174,1.00098,0.06104,-0.27466,0.00000,16293
27.45,0.06494,-0.03174,1.00098,0.12207,-0.33569,0.00000,16298
27.47,0.06543,-0.03125,1.00000,0.06104,-0.33569,-0.09155,16304
27.47,0.06543,-0.03125,1.00000,0.06104,-0.33569,-0.12207,16309
27.42,0.06494,-0.03125,1.00000,0.12207,-0.30518,-0.06104,16315
27.46,0.06494,-0.03125,1.00000,0.12207,-0.33569,-0.03052,16320
27.46,0.06494,-0.03125,1.00000,0.03052,-0.48828,-0.06104,16326
27.46,0.06445,-0.03076,0.99902,0.06104,-0.30518,0.00000,16332
27.46,0.06445,-0.03076,0.99902,0.09155,-0.27466,-0.03052,16337
27.42,0.06396,-0.03076,0.99854,0.06104,-0.33569,-0.06104,16343
27.42,0.06396,-0.03076,0.99854,0.12207,-0.30518,-0.03052,16348
27.45,0.06396,-0.03125,1.00049,0.00000,-0.27466,-0.12207,16354
27.45,0.06396,-0.03125,1.00049,0.15259,-0.30518,-0.18311,16359
27.42,0.06543,-0.03174,1.00244,0.18311,-0.30518,-0.03052,16365
27.43,0.06543,-0.03174,1.00244,0.00000,-0.30518,-0.12207,16370
27.43,0.06592,-0.03174,1.00342,0.03052,-0.27466,-0.15259,16376
27.46,0.06592,-0.03125,1.00342,0.15259,-0.27466,-0.03052,16381
27.46,0.06592,-0.03125,1.00342,0.00000,-0.18311,-0.09155,16387
27.41,0.06445,-0.03027,1.00244,0.03052,-0.33569,-0.09155,16392
27.41,0.06445,-0.03027,1.00244,0.03052,-0.33569,-0.03052,16398
