Temp,AccelX,AccelY,AccelZ,GyroX,GyroY,GyroZ,Millis
27.16,0.19238,-0.05469,1.99023,-1.28174,-1.49536,-0.51880,10162
27.18,0.19238,-0.05469,1.99023,-0.33569,-0.64087,-0.18311,10167
27.18,0.19238,-0.05469,1.99023,0.21362,-0.18311,0.03052,10172
27.15,0.19238,-0.05469,1.99023,0.06104,-0.21362,0.03052,10177
27.15,0.19238,-0.05469,1.99023,-0.03052,-0.18311,0.00000,10182
27.21,0.19238,-0.05469,1.99023,0.00000,-0.30518,0.03052,10187
27.21,0.19238,-0.05469,1.99023,-0.03052,-0.33569,-0.12207,10193
27.23,0.19238,-0.05469,1.99023,0.06104,-0.30518,-0.18311,10198
27.23,0.19238,-0.05469,1.99023,0.12207,-0.36621,-0.09155,10204
27.22,0.19238,-0.05469,1.99023,0.03052,-0.45776,-0.03052,10210
27.22,0.19238,-0.05469,1.99023,0.00000,-0.39673,-0.15259,10215
27.18,0.19238,-0.05469,1.99023,0.00000,-0.33569,-0.12207,10221
27.24,0.19238,-0.05469,1.99023,0.00000,-0.30518,-0.09155,10226
27.24,0.19238,-0.05469,1.99023,0.00000,-0.21362,0.09155,10232
27.21,0.08594,-0.02832,0.98291,-0.03052,-0.21362,-0.09155,10237
27.21,0.08594,-0.02832,0.98291,0.03052,-0.24414,-0.09155,10243
27.22,0.08643,-0.02783,0.99268,-0.06104,-0.24414,-0.03052,10248
27.22,0.08643,-0.02783,0.99268,0.03052,-0.24414,-0.15259,10254
27.23,0.08691,-0.02734,1.00098,0.00000,-0.27466,-0.12207,10260
27.21,0.08691,-0.02734,1.00098,0.03052,-0.27466,-0.06104,10265
27.21,0.08691,-0.02832,1.00244,0.00000,-0.33569,0.03052,10271
27.22,0.08691,-0.02832,1.00244,0.00000,-0.24414,-0.06104,10276
27.22,0.08691,-0.02930,1.00000,0.06104,-0.09155,-0.03052,10282
27.22,0.08740,-0.02979,0.99854,0.00000,-0.15259,-0.03052,10287
27.22,0.08740,-0.02979,0.99854,0.03052,-0.27466,-0.06104,10293
27.21,0.08740,-0.02832,0.99854,0.12207,-0.15259,0.00000,10298
27.21,0.08740,-0.02832,0.99854,0.06104,-0.21362,0.00000,10304
27.21,0.08740,-0.02734,0.99902,0.03052,-0.30518,-0.06104,10309
27.23,0.08740,-0.02734,0.99902,0.00000,-0.21362,-0.09155,10315
27.23,0.08691,-0.02734,0.99951,0.00000,-0.27466,-0.03052,10320
27.24,0.08691,-0.02734,0.99951,0.03052,-0.33569,-0.06104,10326
27.24,0.08643,-0.02783,0.99902,-0.03052,-0.33569,-0.12207,10332
27.23,0.08691,-0.02832,0.99902,-0.03052,-0.27466,-0.06104,10337
27.23,0.08691,-0.02832,0.99902,0.03052,-0.21362,-0.03052,10343
27.22,0.08789,-0.02881,0.99902,-0.06104,-0.27466,-0.06104,10348
27.22,0.08789,-0.02881,0.99902,-0.09155,-0.27466,0.03052,10354
27.21,0.08740,-0.02881,0.99854,0.06104,-0.30518,-0.03052,10360
27.21,0.08740,-0.02881,0.99854,0.12207,-0.18311,-0.15259,10365
27.21,0.08740,-0.02832,0.99805,0.00000,-0.18311,-0.09155,10371
27.20,0.08740,-0.02783,0.99805,0.06104,-0.24414,-0.06104,10376
27.20,0.08740,-0.02783,0.99805,0.15259,-0.33569,-0.03052,10382
27.22,0.08691,-0.02832,0.99805,0.12207,-0.21362,0.00000,10387
27.22,0.08691,-0.02832,0.99805,0.15259,-0.24414,-0.12207,10393
27.24,0.08643,-0.02930,0.99951,0.12207,-0.27466,-0.06104,10398
27.24,0.08643,-0.02930,0.99951,0.12207,-0.21362,-0.06104,10404
27.22,0.08594,-0.02930,1.00049,0.18311,-0.27466,-0.09155,10409
27.24,0.08594,-0.02930,1.00049,0.06104,-0.33569,-0.12207,10415
27.24,0.08643,-0.02881,1.00049,0.03052,-0.21362,-0.12207,10421
27.25,0.08643,-0.02832,1.00000,0.06104,-0.24414,0.03052,10426
27.25,0.08643,-0.02832,1.00000,0.06104,-0.36621,0.00000,10432
27.26,0.08643,-0.02832,0.99902,0.00000,-0.30518,-0.03052,10437
27.26,0.08643,-0.02832,0.99902,0.00000,-0.30518,0.03052,10443
27.26,0.08545,-0.02832,0.99854,0.03052,-0.27466,-0.09155,10448
27.26,0.08545,-0.02832,0.99854,0.03052,-0.27466,0.06104,10454
27.23,0.08545,-0.02832,0.99902,0.00000,-0.21362,0.00000,10459
27.25,0.08545,-0.02832,0.99902,0.09155,-0.27466,0.03052,10465
27.25,0.08643,-0.02881,0.99951,0.12207,-0.27466,0.00000,10470
27.24,0.08643,-0.02881,0.99951,0.06104,-0.27466,0.03052,10475
27.24,0.08740,-0.02930,1.00000,0.06104,-0.36621,-0.09155,10481
27.26,0.08643,-0.02881,1.00049,0.12207,-0.33569,0.00000,10486
27.26,0.08643,-0.02881,1.00049,0.12207,-0.36621,0.03052,10492
27.26,0.08594,-0.02832,1.00000,0.09155,-0.30518,-0.06104,10497
27.26,0.08594,-0.02832,1.00000,0.03052,-0.30518,-0.06104,10503
27.22,0.08594,-0.02881,0.99951,0.12207,-0.24414,0.03052,10508
27.29,0.08594,-0.02881,0.99951,0.09155,-0.24414,0.03052,10514
27.29,0.08594,-0.02832,0.99902,0.12207,-0.27466,-0.06104,10519
27.28,0.08594,-0.02832,0.99902,0.00000,-0.24414,-0.03052,10525
27.28,0.08594,-0.02832,0.99902,0.12207,-0.27466,-0.06104,10531
27.26,0.08594,-0.02783,0.99902,0.09155,-0.30518,-0.09155,10536
27.26,0.08594,-0.02783,0.99902,0.03052,-0.21362,-0.03052,10542
27.24,0.08594,-0.02783,0.99951,-0.03052,-0.18311,-0.12207,10547
27.24,0.08594,-0.02783,0.99951,0.06104,-0.27466,-0.12207,10553
27.25,0.08691,-0.02832,1.00000,0.06104,-0.24414,0.00000,10558
27.29,0.08691,-0.02832,1.00000,0.12207,-0.27466,-0.06104,10564
27.29,0.08691,-0.02832,0.99951,0.09155,-0.24414,-0.06104,10569
27.27,0.08691,-0.02832,0.99951,0.03052,-0.15259,0.00000,10575
27.27,0.08643,-0.02832,0.99854,0.09155,-0.30518,0.00000,10580
27.27,0.08643,-0.02832,0.99854,0.12207,-0.27466,-0.06104,10586
27.27,0.08643,-0.02832,0.99854,0.12207,-0.09155,-0.06104,10591
27.29,0.08691,-0.02832,0.99854,0.03052,-0.24414,-0.09155,10597
27.29,0.08691,-0.02832,0.99854,0.12207,-0.30518,-0.06104,10603
27.25,0.08691,-0.02881,0.99854,0.00000,-0.21362,-0.03052,10608
27.29,0.08691,-0.02881,0.99854,0.09155,-0.24414,-0.06104,10614
27.29,0.08691,-0.02930,0.99902,0.03052,-0.21362,-0.03052,10619
27.24,0.08691,-0.02930,0.99902,0.12207,-0.33569,0.00000,10625
27.24,0.08740,-0.02979,0.99902,0.03052,-0.24414,-0.09155,10630
27.26,0.08691,-0.02979,0.99902,-0.03052,-0.27466,-0.15259,10636
27.26,0.08691,-0.02979,0.99902,-0.15259,-0.24414,-0.09155,10641
27.28,0.08643,-0.02930,0.99951,0.00000,-0.24414,-0.12207,10647
27.28,0.08643,-0.02930,0.99951,-0.06104,-0.21362,-0.12207,10653
27.25,0.08643,-0.02832,0.99951,0.06104,-0.15259,-0.03052,10658
27.27,0.08643,-0.02832,0.99951,0.15259,-0.21362,-0.03052,10664
27.27,0.08691,-0.02832,0.99854,0.03052,-0.33569,-0.06104,10669
27.28,0.08691,-0.02832,0.99854,-0.03052,-0.21362,-0.06104,10675
27.28,0.08691,-0.02832,0.99854,-0.03052,-0.24414,0.00000,10681
27.27,0.08691,-0.02832,0.99902,0.06104,-0.36621,-0.09155,10686
27.27,0.08691,-0.02832,0.99902,0.06104,-0.27466,-0.06104,10692
27.27,0.08643,-0.02832,0.99902,0.03052,-0.27466,-0.06104,10697
27.27,0.08643,-0.02832,0.99902,-0.09155,-0.24414,-0.06104,10703
27.26,0.08643,-0.02783,0.99902,0.15259,-0.27466,-0.06104,10708
27.23,0.08643,-0.02783,0.99902,0.06104,-0.21362,-0.09155,10714
27.23,0.08691,-0.02832,1.00000,-0.06104,-0.27466,-0.15259,10719
27.27,0.08691,-0.02832,1.00000,0.03052,-0.21362,-0.03052,10725
27.27,0.08691,-0.02832,1.00000,0.09155,-0.30518,-0.03052,10731
27.28,0.08643,-0.02832,0.99951,0.09155,-0.24414,-0.18311,10736
27.28,0.08643,-0.02832,0.99951,-0.03052,-0.24414,-0.15259,10742
27.28,0.08691,-0.02881,1.00000,0.15259,-0.33569,0.00000,10747
27.27,0.08691,-0.02881,1.00000,0.06104,-0.27466,-0.09155,10753
27.27,0.08691,-0.02930,1.00000,-0.03052,-0.24414,-0.12207,10758
27.28,0.08691,-0.02930,1.00000,0.09155,-0.21362,-0.03052,10764
27.28,0.08643,-0.02881,1.00000,0.00000,-0.27466,0.00000,10770
27.26,0.08643,-0.02832,0.99951,0.00000,-0.27466,-0.12207,10775
27.26,0.08643,-0.02832,0.99951,0.00000,-0.30518,-0.12207,10781
27.29,0.08740,-0.02881,0.99951,0.00000,-0.36621,-0.09155,10786
27.29,0.08740,-0.02881,0.99951,0.06104,-0.33569,-0.09155,10792
27.26,0.08789,-0.02930,1.00049,0.15259,-0.24414,-0.06104,10797
27.29,0.08789,-0.02930,1.00049,0.15259,-0.24414,0.00000,10803
27.29,0.08789,-0.02930,1.00146,0.12207,-0.30518,-0.03052,10808
27.27,0.08789,-0.02930,1.00146,0.00000,-0.30518,-0.12207,10814
27.27,0.08740,-0.02881,1.00098,0.09155,-0.30518,-0.15259,10819
27.26,0.08691,-0.02783,1.00000,0.06104,-0.24414,-0.12207,10825
27.26,0.08691,-0.02783,1.00000,0.00000,-0.24414,0.09155,10831
27.29,0.08643,-0.02783,0.99951,0.00000,-0.24414,0.09155,10836
27.29,0.08643,-0.02783,0.99951,0.12207,-0.33569,-0.09155,10841
27.29,0.08643,-0.02832,0.99951,0.00000,-0.21362,-0.09155,10847
27.26,0.08643,-0.02832,0.99951,0.09155,-0.33569,-0.03052,10853
27.26,0.08594,-0.02832,0.99902,0.12207,-0.27466,-0.15259,10858
27.24,0.08594,-0.02832,0.99902,0.09155,-0.30518,-0.06104,10864
27.24,0.08643,-0.02832,0.99902,0.15259,-0.30518,-0.09155,10869
27.28,0.08643,-0.02783,1.00000,0.00000,-0.21362,-0.09155,10875
27.28,0.08643,-0.02783,1.00000,-0.06104,-0.33569,-0.06104,10880
27.31,0.08643,-0.02734,1.00049,-0.03052,-0.33569,-0.03052,10886
27.31,0.08643,-0.02734,1.00049,0.06104,-0.18311,-0.09155,10892
27.29,0.08594,-0.02734,1.00000,0.09155,-0.30518,-0.09155,10897
27.28,0.08594,-0.02734,1.00000,0.03052,-0.18311,-0.06104,10903
27.28,0.08545,-0.02832,0.99951,0.00000,-0.33569,-0.09155,10908
27.30,0.08545,-0.02881,0.99902,0.03052,-0.21362,-0.09155,10914
27.30,0.08545,-0.02881,0.99902,0.03052,-0.27466,-0.09155,10919
27.28,0.08594,-0.02930,0.99951,0.12207,-0.24414,-0.18311,10925
27.28,0.08594,-0.02930,0.99951,0.03052,-0.27466,-0.09155,10930
27.33,0.08643,-0.02881,1.00000,-0.06104,-0.27466,-0.12207,10936
27.33,0.08643,-0.02881,1.00000,0.12207,-0.39673,-0.12207,10942
27.31,0.08691,-0.02832,1.00049,0.12207,-0.30518,-0.03052,10947
27.31,0.08691,-0.02832,1.00049,0.06104,-0.18311,-0.09155,10953
27.31,0.08691,-0.02734,1.00000,0.06104,-0.36621,-0.12207,10958
27.27,0.08594,-0.02783,0.99854,0.06104,-0.27466,-0.09155,10964
27.27,0.08594,-0.02783,0.99854,0.12207,-0.27466,-0.06104,10969
27.31,0.08545,-0.02881,0.99805,0.15259,-0.18311,0.03052,10975
27.31,0.08545,-0.02881,0.99805,0.15259,-0.24414,-0.09155,10980
27.27,0.08545,-0.02930,0.99951,0.09155,-0.33569,-0.15259,10986
27.27,0.08545,-0.02930,0.99951,0.06104,-0.36621,-0.09155,10992
27.27,0.08594,-0.02832,1.00049,0.00000,-0.18311,-0.18311,10997
27.28,0.08594,-0.02832,1.00049,0.09155,-0.33569,-0.09155,11003
27.28,0.08594,-0.02783,1.00049,0.06104,-0.24414,0.03052,11008
27.29,0.08643,-0.02832,1.00098,0.00000,-0.21362,-0.03052,11014
27.29,0.08643,-0.02832,1.00098,0.06104,-0.27466,-0.09155,11019
27.31,0.08691,-0.02881,1.00146,0.03052,-0.33569,-0.03052,11025
27.31,0.08691,-0.02881,1.00146,-0.03052,-0.21362,0.03052,11030
27.29,0.08740,-0.02881,1.00098,0.12207,-0.21362,0.03052,11036
27.29,0.08740,-0.02881,1.00098,0.12207,-0.36621,0.03052,11041
27.29,0.08594,-0.02832,1.00049,0.00000,-0.33569,0.00000,11047
27.31,0.08594,-0.02832,1.00049,0.00000,-0.30518,-0.15259,11052
27.31,0.08594,-0.02783,0.99951,0.12207,-0.30518,-0.09155,11058
27.30,0.08643,-0.02783,0.99902,0.12207,-0.27466,-0.21362,11063
27.30,0.08643,-0.02783,0.99902,0.12207,-0.21362,0.03052,11069
27.27,0.08643,-0.02881,0.99902,0.03052,-0.21362,0.00000,11074
27.27,0.08643,-0.02881,0.99902,0.15259,-0.30518,-0.15259,11080
27.31,0.08594,-0.02930,0.99902,0.03052,-0.33569,-0.09155,11085
27.31,0.08594,-0.02930,0.99902,0.00000,-0.30518,0.00000,11091
27.29,0.08643,-0.02930,0.99951,0.12207,-0.24414,-0.09155,11096
27.28,0.08643,-0.02930,0.99951,0.12207,-0.27466,-0.06104,11102
27.28,0.08740,-0.02881,0.99902,0.00000,-0.30518,0.03052,11108
27.28,0.08789,-0.02783,0.99951,0.09155,-0.18311,-0.03052,11113
27.28,0.08789,-0.02783,0.99951,0.15259,-0.18311,-0.03052,11119
27.33,0.08740,-0.02783,1.00049,0.15259,-0.24414,-0.06104,11124
27.33,0.08740,-0.02783,1.00049,0.09155,-0.30518,-0.15259,11130
27.29,0.08691,-0.02832,1.00098,0.00000,-0.24414,-0.06104,11135
27.29,0.08691,-0.02832,1.00098,0.12207,-0.27466,-0.09155,11141
27.28,0.08691,-0.02832,1.00098,0.06104,-0.33569,-0.06104,11146
27.26,0.08691,-0.02832,1.00098,0.18311,-0.24414,-0.12207,11152
27.26,0.08691,-0.02832,1.00000,0.06104,-0.27466,-0.21362,11157
27.34,0.08643,-0.02832,0.99902,0.03052,-0.36621,-0.15259,11163
27.34,0.08643,-0.02832,0.99902,-0.09155,-0.24414,-0.15259,11168
27.29,0.08691,-0.02783,0.99902,0.00000,-0.33569,-0.12207,11174
27.29,0.08691,-0.02783,0.99902,0.15259,-0.33569,-0.03052,11180
27.32,0.08691,-0.02734,0.99902,0.03052,-0.27466,-0.06104,11185
27.31,0.08691,-0.02734,0.99902,0.09155,-0.24414,-0.03052,11191
27.31,0.08594,-0.02783,1.00000,0.15259,-0.30518,-0.12207,11196
27.33,0.08594,-0.02783,1.00000,0.12207,-0.33569,-0.03052,11202
27.33,0.08594,-0.02881,1.00049,0.03052,-0.27466,-0.06104,11207
27.27,0.08594,-0.02881,1.00049,0.12207,-0.33569,0.06104,11213
27.27,0.08594,-0.02881,1.00049,0.03052,-0.33569,-0.06104,11218
27.31,0.08643,-0.02832,1.00049,0.06104,-0.27466,-0.06104,11224
27.31,0.08643,-0.02832,1.00049,0.03052,-0.24414,-0.03052,11230
27.29,0.08691,-0.02783,1.00049,0.09155,-0.30518,-0.06104,11235
27.28,0.08691,-0.02783,1.00049,0.12207,-0.21362,-0.15259,11241
27.28,0.08740,-0.02734,1.00049,-0.06104,-0.24414,-0.09155,11246
27.31,0.08740,-0.02734,1.00049,-0.03052,-0.27466,0.06104,11252
27.31,0.08691,-0.02734,1.00000,0.12207,-0.21362,-0.15259,11257
27.29,0.08691,-0.02734,0.99902,0.06104,-0.30518,-0.06104,11263
27.29,0.08691,-0.02734,0.99902,0.03052,-0.36621,-0.18311,11269
27.35,0.08740,-0.02832,0.99902,-0.03052,-0.30518,-0.09155,11274
27.35,0.08740,-0.02832,0.99902,0.06104,-0.24414,-0.09155,11280
27.30,0.08691,-0.02881,0.99951,-0.06104,-0.21362,-0.06104,11285
27.33,0.08691,-0.02881,0.99951,0.15259,-0.30518,-0.09155,11291
27.33,0.08643,-0.02881,0.99902,0.03052,-0.30518,-0.09155,11296
27.31,0.08643,-0.02832,0.99902,-0.03052,-0.27466,-0.12207,11302
27.31,0.08643,-0.02832,0.99902,0.06104,-0.21362,-0.12207,11308
27.33,0.08643,-0.02783,1.00000,0.03052,-0.27466,-0.12207,11313
27.33,0.08643,-0.02783,1.00000,0.06104,-0.30518,-0.09155,11319
27.30,0.08643,-0.02832,1.00049,0.06104,-0.21362,-0.12207,11324
27.30,0.08643,-0.02832,1.00049,0.12207,-0.36621,-0.12207,11330
27.31,0.08691,-0.02881,1.00000,0.09155,-0.18311,-0.09155,11335
27.31,0.08691,-0.02881,1.00000,-0.03052,-0.30518,-0.06104,11341
27.31,0.08691,-0.02930,1.00000,0.09155,-0.33569,-0.03052,11347
27.36,0.08594,-0.02881,1.00000,0.09155,-0.30518,0.00000,11352
27.36,0.08594,-0.02881,1.00000,0.00000,-0.27466,-0.15259,11358
27.32,0.08643,-0.02881,1.00000,0.06104,-0.21362,-0.12207,11363
27.32,0.08643,-0.02881,1.00000,0.12207,-0.33569,-0.06104,11369
27.32,0.08691,-0.02930,0.99951,0.09155,-0.15259,-0.03052,11374
27.32,0.08691,-0.02930,0.99951,0.06104,-0.21362,-0.03052,11380
27.31,0.08691,-0.02881,0.99902,-0.09155,-0.33569,-0.21362,11385
27.30,0.08691,-0.02881,0.99902,0.03052,-0.30518,-0.06104,11391
27.30,0.08691,-0.02783,0.99902,-0.03052,-0.24414,-0.09155,11397
27.32,0.08643,-0.02783,0.99951,0.00000,-0.12207,-0.15259,11402
27.32,0.08643,-0.02783,0.99951,-0.03052,-0.18311,-0.18311,11408
27.28,0.08594,-0.02783,0.99951,0.00000,-0.30518,-0.09155,11413
27.28,0.08594,-0.02783,0.99951,0.06104,-0.33569,0.00000,11419
27.30,0.08643,-0.02832,0.99902,0.18311,-0.33569,-0.03052,11424
27.35,0.08643,-0.02832,0.99902,0.03052,-0.27466,-0.09155,11430
27.35,0.08643,-0.02881,0.99854,-0.09155,-0.33569,-0.09155,11436
27.34,0.08643,-0.02881,0.99854,0.06104,-0.39673,-0.03052,11441
27.34,0.08740,-0.02930,0.99902,0.12207,-0.30518,-0.09155,11447
27.32,0.08740,-0.02930,1.00000,0.18311,-0.30518,-0.09155,11452
27.32,0.08740,-0.02930,1.00000,0.09155,-0.33569,-0.03052,11458
27.30,0.08545,-0.02832,1.00049,0.03052,-0.30518,-0.06104,11463
27.30,0.08545,-0.02832,1.00049,0.03052,-0.24414,-0.09155,11469
27.31,0.08447,-0.02783,1.00000,0.15259,-0.24414,-0.03052,11474
27.31,0.08447,-0.02783,1.00000,0.09155,-0.24414,-0.09155,11480
27.31,0.08545,-0.02881,0.99951,0.06104,-0.39673,-0.03052,11486
27.33,0.08740,-0.02881,1.00000,0.06104,-0.30518,-0.09155,11491
27.33,0.08740,-0.02881,1.00000,0.09155,-0.27466,-0.03052,11497
27.36,0.08740,-0.02832,1.00000,0.24414,-0.27466,0.03052,11502
27.36,0.08740,-0.02832,1.00000,0.21362,-0.27466,0.00000,11508
27.35,0.08643,-0.02734,0.99951,0.03052,-0.15259,-0.06104,11513
27.35,0.08643,-0.02734,0.99951,0.06104,-0.27466,-0.09155,11519
27.34,0.08594,-0.02734,0.99902,0.03052,-0.27466,-0.12207,11524
27.30,0.08594,-0.02734,0.99902,-0.03052,-0.30518,-0.09155,11530
27.30,0.08643,-0.02881,0.99902,-0.03052,-0.21362,-0.12207,11535
27.31,0.08643,-0.02881,1.00000,0.18311,-0.27466,0.06104,11541
27.31,0.08643,-0.02881,1.00000,0.06104,-0.33569,0.06104,11547
27.32,0.08691,-0.02832,1.00098,0.03052,-0.21362,-0.09155,11552
27.32,0.08691,-0.02832,1.00098,0.09155,-0.27466,-0.18311,11558
27.31,0.08691,-0.02783,1.00098,0.06104,-0.24414,-0.09155,11563
27.31,0.08691,-0.02783,1.00098,0.06104,-0.24414,-0.18311,11569
27.33,0.08594,-0.02734,1.00000,0.03052,-0.36621,-0.09155,11574
27.34,0.08594,-0.02734,1.00000,0.00000,-0.27466,-0.12207,11580
27.34,0.08594,-0.02734,1.00000,0.00000,-0.21362,-0.03052,11585
27.33,0.08594,-0.02783,1.00000,0.12207,-0.27466,-0.09155,11591
27.33,0.08594,-0.02783,1.00000,-0.03052,-0.18311,-0.18311,11596
27.35,0.08643,-0.02832,1.00000,0.12207,-0.24414,-0.09155,11602
27.35,0.08643,-0.02832,1.00000,0.09155,-0.27466,-0.06104,11608
27.35,0.08594,-0.02881,1.00000,0.06104,-0.30518,-0.12207,11613
27.35,0.08594,-0.02881,1.00000,0.15259,-0.27466,-0.15259,11619
27.30,0.08594,-0.02832,1.00000,0.09155,-0.21362,-0.09155,11624
27.35,0.08594,-0.02832,1.00000,0.09155,-0.24414,-0.12207,11630
27.35,0.08643,-0.02783,1.00049,0.03052,-0.24414,-0.06104,11635
27.34,0.08691,-0.02783,1.00049,0.15259,-0.36621,-0.06104,11641
27.34,0.08691,-0.02783,1.00049,0.09155,-0.30518,-0.09155,11646
27.33,0.08740,-0.02832,0.99902,0.00000,-0.27466,-0.12207,11652
27.33,0.08740,-0.02832,0.99902,0.00000,-0.18311,-0.03052,11658
27.33,0.08691,-0.02930,0.99854,0.03052,-0.30518,-0.12207,11663
27.33,0.08691,-0.02930,0.99854,0.09155,-0.33569,-0.06104,11669
27.33,0.08643,-0.02979,0.99951,-0.06104,-0.18311,-0.09155,11674
27.33,0.08643,-0.02979,0.99951,0.03052,-0.24414,-0.06104,11680
27.33,0.08643,-0.02930,1.00000,0.06104,-0.30518,-0.18311,11685
27.36,0.08643,-0.02832,1.00049,0.12207,-0.24414,0.03052,11691
27.36,0.08643,-0.02832,1.00049,0.03052,-0.18311,0.00000,11696
27.33,0.08643,-0.02734,1.00049,0.09155,-0.33569,-0.03052,11702
27.33,0.08643,-0.02734,1.00049,0.15259,-0.39673,-0.06104,11707
27.32,0.08643,-0.02783,1.00000,0.12207,-0.27466,-0.12207,11713
27.35,0.08643,-0.02783,1.00000,0.00000,-0.30518,-0.06104,11719
27.35,0.08594,-0.02832,0.99951,0.03052,-0.27466,0.00000,11724
27.32,0.08594,-0.02832,0.99951,0.03052,-0.18311,-0.03052,11730
27.32,0.08594,-0.02832,0.99951,0.12207,-0.36621,-0.03052,11735
27.34,0.08594,-0.02832,0.99951,0.12207,-0.39673,0.00000,11741
27.34,0.08594,-0.02832,0.99951,0.03052,-0.42725,0.00000,11746
27.34,0.08643,-0.02832,0.99902,0.00000,-0.30518,0.00000,11752
27.34,0.08643,-0.02832,0.99902,-0.06104,-0.33569,-0.09155,11757
27.35,0.08740,-0.02832,0.99951,0.12207,-0.27466,-0.06104,11763
27.33,0.08740,-0.02832,0.99951,0.09155,-0.33569,-0.06104,11768
27.33,0.08740,-0.02783,1.00000,-0.06104,-0.21362,-0.15259,11774
27.37,0.08740,-0.02783,1.00000,-0.09155,-0.15259,-0.18311,11779
27.37,0.08789,-0.02783,1.00049,0.12207,-0.30518,0.00000,11785
27.34,0.08789,-0.02832,1.00098,0.03052,-0.39673,-0.12207,11791
27.34,0.08789,-0.02832,1.00098,0.03052,-0.33569,-0.06104,11796
27.34,0.08789,-0.02881,1.00049,0.09155,-0.12207,0.03052,11802
27.34,0.08789,-0.02881,1.00049,0.00000,-0.18311,-0.15259,11807
27.33,0.08740,-0.02881,1.00000,0.00000,-0.15259,-0.18311,11813
27.31,0.08740,-0.02881,1.00000,-0.03052,-0.27466,-0.18311,11818
27.31,0.08643,-0.02881,1.00000,0.09155,-0.27466,-0.12207,11824
27.33,0.08643,-0.02881,1.00000,0.09155,-0.27466,-0.06104,11829
27.33,0.08545,-0.02930,1.00000,0.06104,-0.21362,-0.03052,11835
27.35,0.08594,-0.02930,1.00000,0.03052,-0.27466,-0.09155,11841
27.35,0.08594,-0.02930,1.00000,0.09155,-0.27466,-0.06104,11846
27.32,0.08643,-0.02881,1.00000,0.03052,-0.27466,-0.06104,11852
27.32,0.08643,-0.02881,1.00000,-0.03052,-0.24414,-0.15259,11857
27.36,0.08740,-0.02783,1.00049,0.00000,-0.24414,-0.12207,11863
27.35,0.08740,-0.02783,1.00049,0.09155,-0.21362,0.00000,11868
27.35,0.08691,-0.02783,1.00000,0.09155,-0.30518,0.06104,11874
27.34,0.08691,-0.02783,0.99951,0.09155,-0.27466,-0.03052,11879
27.34,0.08691,-0.02783,0.99951,0.03052,-0.33569,-0.06104,11885
27.32,0.08643,-0.02832,1.00000,-0.03052,-0.33569,0.03052,11890
27.32,0.08643,-0.02832,1.00000,-0.03052,-0.27466,-0.03052,11896
27.36,0.08545,-0.02832,1.00098,0.09155,-0.30518,0.00000,11902
27.36,0.08545,-0.02832,1.00098,0.06104,-0.30518,-0.12207,11907
27.36,0.08496,-0.02832,1.00098,0.06104,-0.30518,-0.03052,11913
27.36,0.08496,-0.02832,1.00098,0.03052,-0.24414,0.00000,11918
27.36,0.08545,-0.02832,1.00000,0.03052,-0.21362,-0.06104,11924
27.33,0.08643,-0.02783,1.00000,0.03052,-0.24414,-0.09155,11929
27.33,0.08643,-0.02783,1.00000,0.06104,-0.24414,-0.06104,11935
27.37,0.08643,-0.02783,1.00000,0.12207,-0.30518,-0.18311,11940
27.37,0.08643,-0.02783,1.00000,0.09155,-0.27466,-0.06104,11946
27.36,0.08643,-0.02832,1.00000,0.06104,-0.24414,-0.09155,11951
27.36,0.08643,-0.02832,1.00000,0.03052,-0.33569,-0.03052,11957
27.39,0.08643,-0.02930,0.99951,-0.03052,-0.36621,0.03052,11963
27.36,0.08643,-0.02930,0.99951,0.03052,-0.24414,-0.09155,11968
27.36,0.08594,-0.02881,0.99902,0.12207,-0.09155,-0.18311,11974
27.36,0.08643,-0.02832,0.99902,0.09155,-0.30518,-0.09155,11979
27.36,0.08643,-0.02832,0.99902,0.00000,-0.30518,-0.12207,11985
27.38,0.08691,-0.02881,0.99902,0.00000,-0.24414,-0.15259,11990
27.38,0.08691,-0.02881,0.99902,0.06104,-0.33569,-0.06104,11996
27.33,0.08740,-0.02930,0.99951,0.09155,-0.30518,0.00000,12001
27.33,0.08740,-0.02930,0.99951,0.00000,-0.24414,-0.15259,12007
27.33,0.08691,-0.02881,1.00000,0.03052,-0.27466,-0.09155,12012
27.36,0.08691,-0.02881,1.00000,0.09155,-0.33569,0.09155,12018
27.36,0.08594,-0.02881,0.99951,0.03052,-0.27466,0.00000,12023
27.31,0.08594,-0.02881,0.99902,-0.06104,-0.36621,-0.09155,12029
27.31,0.08594,-0.02881,0.99902,0.03052,-0.27466,-0.03052,12035
27.34,0.08691,-0.02832,0.99902,0.06104,-0.12207,-0.09155,12040
27.34,0.08691,-0.02832,0.99902,0.03052,-0.21362,-0.09155,12046
27.35,0.08691,-0.02832,0.99902,0.09155,-0.30518,0.03052,12051
27.35,0.08691,-0.02832,0.99902,-0.03052,-0.15259,-0.06104,12057
27.37,0.08643,-0.02930,0.99854,0.03052,-0.24414,-0.12207,12062
27.34,0.08643,-0.02930,0.99854,0.03052,-0.30518,-0.15259,12068
27.34,0.08594,-0.02930,0.99854,0.00000,-0.24414,-0.15259,12073
27.32,0.08643,-0.02930,0.99854,0.09155,-0.36621,0.00000,12079
27.32,0.08643,-0.02930,0.99854,0.06104,-0.30518,0.06104,12084
27.33,0.08691,-0.02881,0.99902,-0.03052,-0.21362,-0.03052,12090
27.33,0.08691,-0.02881,0.99902,0.06104,-0.24414,-0.12207,12096
27.37,0.08740,-0.02832,1.00000,0.06104,-0.27466,0.09155,12101
27.37,0.08740,-0.02832,1.00000,0.03052,-0.30518,-0.03052,12107
27.34,0.08691,-0.02783,1.00049,0.09155,-0.24414,0.00000,12112
27.34,0.08691,-0.02783,1.00049,0.00000,-0.21362,0.00000,12118
27.34,0.08691,-0.02832,1.00049,0.00000,-0.30518,0.06104,12123
27.33,0.08691,-0.02881,1.00000,0.18311,-0.39673,-0.12207,12128
27.33,0.08691,-0.02881,1.00000,0.03052,-0.27466,-0.09155,12134
27.37,0.08545,-0.02881,0.99902,0.00000,-0.33569,-0.12207,12140
27.37,0.08545,-0.02881,0.99902,0.00000,-0.24414,-0.18311,12145
27.34,0.08496,-0.02881,0.99854,0.06104,-0.24414,0.00000,12151
27.34,0.08496,-0.02881,0.99854,0.15259,-0.12207,-0.03052,12156
27.36,0.08496,-0.02832,0.99902,0.18311,-0.21362,-0.09155,12162
27.36,0.08496,-0.02832,0.99902,0.09155,-0.27466,-0.18311,12167
27.36,0.08496,-0.02832,0.99951,0.06104,-0.24414,-0.21362,12173
27.37,0.08594,-0.02783,0.99902,0.06104,-0.27466,-0.12207,12178
27.37,0.08594,-0.02783,0.99902,0.06104,-0.39673,-0.09155,12184
27.34,0.08643,-0.02783,0.99854,0.09155,-0.30518,-0.09155,12189
27.34,0.08643,-0.02783,0.99854,0.03052,-0.24414,-0.06104,12195
27.31,0.08643,-0.02832,0.99854,0.03052,-0.39673,-0.06104,12201
27.33,0.08643,-0.02832,0.99854,0.09155,-0.30518,-0.06104,12206
27.33,0.08691,-0.02832,0.99902,0.06104,-0.21362,-0.03052,12212
27.35,0.08691,-0.02832,0.99902,0.03052,-0.27466,0.00000,12217
27.35,0.08838,-0.02881,1.00049,0.03052,-0.30518,-0.06104,12223
27.35,0.08789,-0.02930,1.00000,-0.06104,-0.21362,-0.06104,12228
27.35,0.08789,-0.02930,1.00000,0.03052,-0.21362,-0.21362,12234
27.32,0.08643,-0.02979,0.99902,0.03052,-0.33569,-0.12207,12239
27.32,0.08643,-0.02979,0.99902,0.03052,-0.24414,0.00000,12245
27.37,0.08545,-0.02881,0.99902,0.00000,-0.30518,-0.09155,12250
27.35,0.08545,-0.02881,0.99902,0.06104,-0.39673,-0.09155,12256
27.35,0.08545,-0.02734,0.99951,0.09155,-0.36621,-0.03052,12262
27.33,0.08545,-0.02734,0.99951,0.00000,-0.33569,0.03052,12267
27.33,0.08643,-0.02783,0.99902,0.00000,-0.30518,-0.06104,12273
27.34,0.08691,-0.02881,0.99902,0.00000,-0.30518,-0.03052,12278
27.34,0.08691,-0.02881,0.99902,0.12207,-0.30518,-0.12207,12284
27.38,0.08643,-0.02930,1.00049,0.09155,-0.27466,-0.06104,12289
27.38,0.08643,-0.02930,1.00049,0.06104,-0.30518,0.00000,12295
27.37,0.08691,-0.02979,1.00098,0.03052,-0.30518,-0.15259,12300
27.32,0.08691,-0.02979,1.00098,0.03052,-0.24414,-0.06104,12306
27.32,0.08691,-0.02881,0.99951,0.06104,-0.21362,-0.15259,12311
27.35,0.08691,-0.02881,0.99951,0.09155,-0.24414,-0.12207,12317
27.35,0.08643,-0.02832,0.99805,-0.03052,-0.36621,-0.09155,12322
27.35,0.08643,-0.02832,0.99854,0.09155,-0.27466,-0.09155,12328
27.35,0.08643,-0.02832,0.99854,0.00000,-0.24414,-0.12207,12334
27.31,0.08643,-0.02832,0.99951,-0.03052,-0.27466,-0.09155,12339
27.31,0.08643,-0.02832,0.99951,0.06104,-0.33569,-0.03052,12345
27.37,0.08594,-0.02930,0.99951,0.06104,-0.42725,0.03052,12350
27.36,0.08594,-0.02930,0.99951,0.03052,-0.24414,-0.12207,12356
27.36,0.08545,-0.02930,0.99854,0.12207,-0.24414,0.03052,12361
27.35,0.08545,-0.02930,0.99854,0.09155,-0.27466,-0.03052,12367
27.35,0.08545,-0.02881,0.99854,0.03052,-0.39673,0.09155,12372
27.41,0.08594,-0.02832,0.99951,0.15259,-0.36621,-0.09155,12378
27.41,0.08594,-0.02832,0.99951,0.12207,-0.27466,-0.09155,12383
27.31,0.08691,-0.02832,1.00049,0.03052,-0.30518,0.00000,12389
27.31,0.08691,-0.02832,1.00049,0.06104,-0.33569,-0.03052,12394
27.37,0.08643,-0.02930,1.00000,0.03052,-0.27466,0.00000,12400
27.33,0.08643,-0.02930,1.00000,0.03052,-0.24414,-0.12207,12405
27.33,0.08643,-0.02881,0.99951,0.00000,-0.33569,-0.09155,12411
27.34,0.08643,-0.02881,0.99951,0.03052,-0.27466,-0.09155,12417
27.34,0.08691,-0.02832,1.00000,0.15259,-0.24414,-0.12207,12422
27.35,0.08691,-0.02783,1.00049,0.18311,-0.30518,-0.09155,12428
27.35,0.08691,-0.02783,1.00049,0.12207,-0.27466,-0.09155,12433
27.36,0.08740,-0.02783,1.00000,0.09155,-0.18311,-0.12207,12439
27.36,0.08740,-0.02783,1.00000,0.15259,-0.33569,-0.03052,12444
27.34,0.08740,-0.02783,0.99951,0.03052,-0.30518,-0.15259,12450
27.37,0.08740,-0.02783,0.99951,0.06104,-0.27466,-0.12207,12455
27.37,0.08643,-0.02881,0.99854,0.12207,-0.42725,-0.12207,12461
27.36,0.08643,-0.02881,0.99854,-0.06104,-0.24414,-0.03052,12467
27.36,0.08594,-0.02930,0.99902,0.09155,-0.24414,-0.03052,12472
27.33,0.08545,-0.02832,0.99854,0.03052,-0.33569,0.00000,12478
27.33,0.08545,-0.02832,0.99854,-0.03052,-0.33569,-0.12207,12483
27.34,0.08643,-0.02734,0.99854,0.06104,-0.18311,-0.09155,12489
27.34,0.08643,-0.02734,0.99854,0.06104,-0.21362,-0.06104,12494
27.33,0.08789,-0.02783,1.00000,0.09155,-0.33569,0.00000,12500
27.33,0.08789,-0.02783,1.00000,0.06104,-0.21362,-0.06104,12505
27.33,0.08789,-0.02832,1.00049,0.09155,-0.21362,0.00000,12511
27.37,0.08691,-0.02930,1.00049,0.03052,-0.30518,0.09155,12516
27.37,0.08691,-0.02930,1.00049,0.00000,-0.30518,-0.15259,12522
27.36,0.08594,-0.02979,1.00000,0.06104,-0.21362,-0.15259,12527
27.36,0.08594,-0.02979,1.00000,0.12207,-0.30518,0.06104,12533
27.35,0.08594,-0.02979,0.99902,0.09155,-0.36621,-0.03052,12538
27.35,0.08594,-0.02979,0.99902,-0.06104,-0.18311,-0.06104,12544
27.34,0.08691,-0.02881,0.99854,0.00000,-0.27466,-0.12207,12550
27.36,0.08691,-0.02881,0.99854,0.00000,-0.27466,-0.06104,12555
27.36,0.08691,-0.02881,0.99854,0.06104,-0.30518,-0.06104,12561
27.40,0.08643,-0.02832,0.99854,0.09155,-0.24414,-0.09155,12566
27.40,0.08643,-0.02832,0.99854,0.09155,-0.30518,-0.15259,12572
27.35,0.08643,-0.02881,0.99951,0.09155,-0.33569,-0.15259,12577
27.35,0.08643,-0.02881,0.99951,0.15259,-0.27466,0.00000,12583
27.34,0.08691,-0.02881,1.00000,0.15259,-0.21362,-0.06104,12588
27.34,0.08691,-0.02881,1.00000,0.03052,-0.27466,-0.12207,12594
27.34,0.08740,-0.02832,1.00049,0.03052,-0.24414,0.00000,12600
27.34,0.08740,-0.02832,1.00049,0.06104,-0.24414,0.00000,12605
27.34,0.08691,-0.02783,1.00049,0.06104,-0.30518,-0.03052,12610
27.39,0.08643,-0.02783,1.00049,-0.03052,-0.21362,0.03052,12616
27.39,0.08643,-0.02783,1.00049,0.00000,-0.24414,-0.06104,12622
27.39,0.08643,-0.02832,1.00000,0.06104,-0.24414,-0.03052,12627
27.39,0.08643,-0.02832,1.00000,0.00000,-0.12207,-0.09155,12633
27.39,0.08643,-0.02881,0.99902,0.09155,-0.21362,-0.09155,12638
27.39,0.08643,-0.02881,0.99902,0.15259,-0.27466,-0.03052,12644
27.35,0.08740,-0.02832,0.99902,0.03052,-0.39673,-0.06104,12649
27.37,0.08740,-0.02832,0.99902,0.06104,-0.39673,-0.09155,12655
27.37,0.08691,-0.02832,0.99902,0.03052,-0.33569,-0.09155,12660
27.36,0.08643,-0.02881,0.99951,-0.06104,-0.24414,-0.09155,12666
27.36,0.08643,-0.02881,0.99951,0.00000,-0.24414,0.00000,12672
27.36,0.08594,-0.02832,0.99902,0.00000,-0.45776,0.00000,12677
27.36,0.08594,-0.02832,0.99902,-0.03052,-0.27466,-0.06104,12683
27.39,0.08594,-0.02832,0.99902,0.15259,-0.21362,0.00000,12688
27.39,0.08594,-0.02832,0.99902,0.06104,-0.21362,0.06104,12694
27.37,0.08691,-0.02881,0.99902,0.12207,-0.24414,-0.06104,12699
27.36,0.08691,-0.02881,0.99902,-0.06104,-0.33569,-0.06104,12705
27.36,0.08740,-0.02832,0.99902,0.09155,-0.18311,-0.06104,12710
27.37,0.08789,-0.02832,0.99951,0.03052,-0.27466,0.03052,12716
27.37,0.08789,-0.02832,0.99951,-0.12207,-0.21362,-0.09155,12721
27.37,0.08740,-0.02881,1.00098,-0.06104,-0.24414,-0.12207,12727
27.37,0.08740,-0.02881,1.00098,0.03052,-0.33569,-0.09155,12733
27.36,0.08691,-0.02832,1.00146,0.03052,-0.18311,-0.06104,12738
27.37,0.08691,-0.02832,1.00146,0.03052,-0.21362,-0.09155,12744
27.37,0.08643,-0.02783,1.00000,-0.09155,-0.30518,-0.03052,12749
27.35,0.08643,-0.02783,1.00000,0.00000,-0.33569,-0.03052,12755
27.35,0.08643,-0.02832,0.99902,0.06104,-0.27466,-0.12207,12760
27.35,0.08691,-0.02930,0.99902,0.09155,-0.21362,-0.06104,12766
27.35,0.08691,-0.02930,0.99902,0.06104,-0.30518,-0.06104,12772
27.38,0.08643,-0.02930,0.99902,0.00000,-0.21362,-0.06104,12777
27.38,0.08643,-0.02930,0.99902,0.06104,-0.27466,-0.12207,12783
27.37,0.08643,-0.02881,0.99854,-0.03052,-0.42725,-0.21362,12788
27.37,0.08643,-0.02881,0.99854,0.06104,-0.33569,-0.09155,12794
27.37,0.08691,-0.02881,0.99854,0.06104,-0.27466,-0.09155,12799
27.39,0.08691,-0.02881,0.99854,0.03052,-0.21362,-0.12207,12805
27.39,0.08691,-0.02881,0.99854,-0.03052,-0.27466,-0.06104,12810
27.35,0.08594,-0.02881,0.99951,-0.06104,-0.42725,-0.06104,12816
27.35,0.08594,-0.02881,0.99951,0.06104,-0.42725,-0.09155,12822
27.38,0.08594,-0.02881,1.00000,0.15259,-0.27466,-0.09155,12827
27.38,0.08594,-0.02881,1.00000,0.12207,-0.27466,-0.12207,12833
27.40,0.08594,-0.02881,1.00000,0.06104,-0.33569,-0.03052,12838
27.36,0.08594,-0.02881,1.00000,0.00000,-0.27466,-0.09155,12844
27.36,0.08643,-0.02832,0.99951,0.03052,-0.36621,-0.06104,12850
27.38,0.08691,-0.02832,0.99951,0.00000,-0.36621,-0.06104,12855
27.38,0.08691,-0.02832,0.99951,0.15259,-0.21362,-0.09155,12861
27.34,0.08691,-0.02832,1.00000,0.06104,-0.15259,-0.12207,12866
27.34,0.08691,-0.02832,1.00000,0.00000,-0.09155,-0.15259,12872
27.39,0.08691,-0.02881,1.00000,-0.03052,-0.27466,-0.03052,12877
27.39,0.08691,-0.02881,1.00000,0.00000,-0.24414,-0.12207,12883
27.33,0.08643,-0.02881,1.00000,0.12207,-0.24414,-0.12207,12888
27.39,0.08643,-0.02881,1.00000,0.00000,-0.27466,-0.15259,12894
27.39,0.08643,-0.02930,1.00000,0.03052,-0.27466,-0.15259,12900
27.36,0.08691,-0.02930,1.00000,0.00000,-0.21362,0.00000,12905
27.36,0.08691,-0.02930,1.00000,0.06104,-0.27466,-0.03052,12911
27.37,0.08740,-0.02881,0.99951,0.09155,-0.42725,0.00000,12916
27.37,0.08740,-0.02881,0.99951,-0.03052,-0.30518,-0.09155,12922
27.36,0.08643,-0.02881,1.00000,0.18311,-0.24414,-0.09155,12927
27.38,0.08643,-0.02881,1.00000,0.12207,-0.36621,0.00000,12933
27.38,0.08643,-0.02832,1.00000,0.09155,-0.33569,-0.03052,12938
27.39,0.08643,-0.02832,1.00000,0.06104,-0.33569,-0.03052,12944
27.39,0.08643,-0.02832,0.99951,0.00000,-0.18311,-0.03052,12949
27.38,0.08740,-0.02783,0.99902,0.06104,-0.33569,-0.06104,12955
27.38,0.08740,-0.02783,0.99902,0.09155,-0.33569,-0.12207,12961
27.36,0.08691,-0.02783,1.00000,0.03052,-0.24414,-0.06104,12966
27.36,0.08691,-0.02783,1.00000,0.00000,-0.24414,-0.06104,12972
27.38,0.08643,-0.02783,1.00098,0.03052,-0.27466,-0.12207,12977
27.39,0.08643,-0.02783,1.00098,0.06104,-0.33569,-0.15259,12983
27.39,0.08643,-0.02734,1.00098,0.06104,-0.39673,0.00000,12988
27.38,0.08643,-0.02734,1.00098,0.03052,-0.27466,-0.09155,12994
27.38,0.08740,-0.02734,1.00049,0.09155,-0.36621,-0.09155,12999
27.39,0.08838,-0.02832,1.00049,-0.03052,-0.27466,-0.09155,13005
27.39,0.08838,-0.02832,1.00049,0.06104,-0.36621,-0.15259,13010
27.40,0.08789,-0.02881,1.00049,0.06104,-0.36621,-0.06104,13016
27.40,0.08789,-0.02881,1.00049,0.09155,-0.27466,0.00000,13022
27.37,0.08740,-0.02930,0.99951,0.12207,-0.27466,-0.18311,13027
27.34,0.08740,-0.02930,0.99951,0.03052,-0.27466,-0.09155,13033
27.34,0.08789,-0.02979,0.99902,0.03052,-0.33569,-0.03052,13038
27.34,0.08789,-0.02979,0.99902,0.09155,-0.24414,-0.03052,13044
27.34,0.08740,-0.03027,0.99951,0.09155,-0.30518,-0.06104,13049
27.35,0.08643,-0.02930,0.99951,0.03052,-0.30518,-0.18311,13055
27.35,0.08643,-0.02930,0.99951,-0.03052,-0.27466,-0.06104,13060
27.40,0.08594,-0.02832,0.99951,0.09155,-0.24414,-0.06104,13066
27.40,0.08594,-0.02832,0.99951,0.09155,-0.36621,-0.18311,13072
27.38,0.08691,-0.02832,0.99951,0.00000,-0.33569,-0.18311,13077
27.40,0.08691,-0.02832,0.99951,-0.15259,-0.27466,-0.18311,13083
27.40,0.08740,-0.02979,0.99902,-0.03052,-0.18311,-0.09155,13088
27.39,0.08594,-0.02979,0.99951,0.03052,-0.15259,-0.09155,13094
27.39,0.08594,-0.02979,0.99951,0.06104,-0.27466,-0.06104,13099
27.38,0.08594,-0.02881,1.00049,0.15259,-0.36621,-0.03052,13105
27.38,0.08594,-0.02881,1.00049,0.06104,-0.30518,-0.06104,13111
27.38,0.08691,-0.02832,1.00049,0.03052,-0.18311,-0.12207,13116
27.38,0.08691,-0.02832,1.00049,0.06104,-0.30518,0.00000,13122
27.39,0.08691,-0.02832,1.00000,0.03052,-0.30518,-0.12207,13127
27.39,0.08691,-0.02832,1.00000,-0.06104,-0.30518,-0.09155,13133
27.39,0.08643,-0.02881,0.99902,-0.06104,-0.27466,-0.03052,13138
27.37,0.08594,-0.02930,1.00000,0.03052,-0.27466,-0.15259,13144
27.37,0.08594,-0.02930,1.00000,0.03052,-0.18311,-0.09155,13150
27.38,0.08594,-0.02832,1.00098,0.06104,-0.30518,-0.09155,13155
27.38,0.08594,-0.02832,1.00098,0.06104,-0.36621,-0.06104,13161
27.36,0.08594,-0.02734,1.00098,0.00000,-0.27466,-0.09155,13166
27.37,0.08594,-0.02734,1.00098,0.03052,-0.21362,-0.03052,13172
27.37,0.08643,-0.02832,1.00098,0.00000,-0.33569,-0.06104,13177
27.35,0.08643,-0.02832,1.00098,0.09155,-0.27466,-0.06104,13183
27.35,0.08691,-0.02832,1.00000,0.00000,-0.21362,0.06104,13188
27.38,0.08643,-0.02832,0.99951,-0.03052,-0.15259,-0.06104,13194
27.38,0.08643,-0.02832,0.99951,0.06104,-0.27466,-0.06104,13199
27.38,0.08643,-0.02832,1.00049,0.06104,-0.24414,0.03052,13205
27.38,0.08643,-0.02832,1.00049,0.03052,-0.27466,-0.09155,13210
27.40,0.08643,-0.02881,1.00098,0.09155,-0.39673,-0.09155,13216
27.40,0.08643,-0.02881,1.00098,0.09155,-0.42725,-0.06104,13222
27.40,0.08691,-0.02832,1.00098,0.03052,-0.36621,-0.09155,13227
27.37,0.08691,-0.02832,1.00098,-0.03052,-0.30518,-0.06104,13233
27.37,0.08643,-0.02832,1.00098,-0.03052,-0.24414,-0.15259,13238
27.36,0.08643,-0.02832,0.99951,0.03052,-0.33569,0.00000,13244
27.36,0.08643,-0.02832,0.99951,0.00000,-0.21362,-0.12207,13249
27.37,0.08643,-0.02832,0.99805,-0.03052,-0.15259,-0.18311,13255
27.37,0.08643,-0.02832,0.99805,0.00000,-0.33569,0.00000,13261
27.37,0.08643,-0.02881,0.99854,0.03052,-0.27466,-0.09155,13266
27.35,0.08643,-0.02881,0.99854,0.06104,-0.27466,-0.09155,13272
27.35,0.08643,-0.02881,0.99951,0.09155,-0.27466,-0.03052,13277
27.40,0.08643,-0.02881,0.99951,0.15259,-0.12207,0.03052,13283
27.40,0.08691,-0.02832,0.99951,-0.09155,-0.27466,-0.06104,13288
27.35,0.08740,-0.02832,0.99951,-0.03052,-0.18311,-0.09155,13294
27.35,0.08740,-0.02832,0.99951,0.12207,-0.21362,-0.03052,13300
27.38,0.08643,-0.02832,0.99951,0.09155,-0.36621,-0.12207,13305
27.38,0.08643,-0.02832,0.99951,0.15259,-0.27466,-0.03052,13311
27.37,0.08545,-0.02832,0.99951,0.09155,-0.30518,0.00000,13316
27.40,0.08545,-0.02832,0.99951,0.03052,-0.30518,-0.06104,13322
27.40,0.08496,-0.02832,0.99951,0.03052,-0.33569,-0.09155,13327
27.36,0.08594,-0.02832,1.00000,0.09155,-0.24414,-0.09155,13333
27.36,0.08594,-0.02832,1.00000,0.12207,-0.24414,-0.15259,13338
27.37,0.08740,-0.02832,1.00049,-0.06104,-0.33569,-0.09155,13344
27.37,0.08740,-0.02832,1.00049,-0.06104,-0.30518,-0.09155,13349
27.40,0.08740,-0.02881,1.00098,0.00000,-0.24414,-0.15259,13355
27.40,0.08740,-0.02881,1.00098,-0.03052,-0.18311,-0.03052,13361
27.38,0.08643,-0.02881,1.00049,0.06104,-0.27466,-0.03052,13366
27.44,0.08643,-0.02881,1.00049,0.18311,-0.27466,-0.12207,13372
27.44,0.08545,-0.02881,0.99951,0.12207,-0.27466,-0.06104,13377
27.36,0.08545,-0.02881,0.99854,0.06104,-0.27466,-0.06104,13383
27.36,0.08545,-0.02881,0.99854,0.00000,-0.30518,-0.15259,13389
27.37,0.08594,-0.02832,0.99902,0.06104,-0.27466,-0.03052,13394
27.37,0.08594,-0.02832,0.99902,0.15259,-0.30518,-0.03052,13400
27.39,0.08643,-0.02832,0.99902,0.12207,-0.36621,-0.06104,13405
27.40,0.08643,-0.02832,0.99902,0.06104,-0.21362,-0.09155,13411
27.40,0.08545,-0.02832,0.99902,0.06104,-0.30518,0.00000,13416
27.38,0.08545,-0.02832,0.99902,0.00000,-0.24414,0.00000,13422
27.38,0.08545,-0.02832,0.99951,0.00000,-0.24414,-0.12207,13427
27.36,0.08545,-0.02832,1.00000,-0.09155,-0.21362,-0.09155,13433
27.36,0.08545,-0.02832,1.00000,0.12207,-0.21362,-0.09155,13438
27.43,0.08594,-0.02832,1.00049,0.12207,-0.33569,-0.03052,13444
27.43,0.08594,-0.02832,1.00049,0.03052,-0.27466,-0.12207,13449
27.39,0.08643,-0.02734,1.00049,-0.03052,-0.27466,-0.06104,13455
27.38,0.08643,-0.02734,1.00049,0.03052,-0.33569,0.00000,13461
27.38,0.08643,-0.02783,1.00000,0.09155,-0.27466,-0.06104,13466
27.39,0.08643,-0.02783,1.00000,0.09155,-0.21362,-0.06104,13472
27.39,0.08691,-0.02832,0.99951,0.06104,-0.21362,0.03052,13477
27.38,0.08740,-0.02881,1.00000,0.09155,-0.30518,-0.12207,13483
27.38,0.08740,-0.02881,1.00000,0.09155,-0.24414,-0.12207,13488
27.36,0.08789,-0.02930,1.00049,0.06104,-0.21362,0.06104,13494
27.36,0.08789,-0.02930,1.00049,0.12207,-0.27466,-0.06104,13499
27.37,0.08691,-0.02930,1.00049,0.00000,-0.24414,-0.09155,13505
27.39,0.08691,-0.02930,1.00049,-0.09155,-0.27466,-0.09155,13510
27.39,0.08594,-0.02881,1.00000,0.09155,-0.33569,0.00000,13516
27.37,0.08594,-0.02881,1.00000,0.00000,-0.27466,-0.09155,13521
27.37,0.08594,-0.02832,0.99902,0.06104,-0.30518,-0.15259,13527
27.39,0.08594,-0.02783,0.99805,-0.03052,-0.27466,-0.12207,13533
27.39,0.08594,-0.02783,0.99805,0.00000,-0.27466,-0.15259,13538
27.36,0.08643,-0.02881,0.99805,0.12207,-0.30518,-0.18311,13544
27.36,0.08643,-0.02881,0.99805,-0.03052,-0.27466,-0.09155,13549
27.36,0.08740,-0.02930,0.99854,0.00000,-0.33569,0.00000,13555
27.38,0.08740,-0.02930,0.99854,0.06104,-0.18311,-0.03052,13560
27.38,0.08691,-0.02930,1.00000,-0.06104,-0.27466,-0.06104,13566
27.39,0.08643,-0.02832,1.00049,0.00000,-0.30518,-0.06104,13572
27.39,0.08643,-0.02832,1.00049,0.00000,-0.33569,0.00000,13577
27.38,0.08643,-0.02783,1.00000,0.12207,-0.36621,-0.09155,13583
27.38,0.08643,-0.02783,1.00000,0.09155,-0.36621,-0.12207,13588
27.39,0.08643,-0.02832,0.99951,-0.09155,-0.24414,-0.21362,13594
27.39,0.08643,-0.02832,0.99951,0.00000,-0.21362,-0.06104,13599
27.38,0.08643,-0.02881,1.00000,0.03052,-0.33569,-0.03052,13605
27.38,0.08643,-0.02881,1.00000,0.09155,-0.30518,-0.03052,13611
27.38,0.08691,-0.02881,1.00098,0.06104,-0.33569,-0.09155,13616
27.40,0.08691,-0.02881,1.00049,0.06104,-0.27466,-0.03052,13622
27.40,0.08691,-0.02881,1.00049,0.12207,-0.24414,0.00000,13627
27.37,0.08691,-0.02832,0.99854,0.03052,-0.15259,-0.06104,13633
27.37,0.08691,-0.02832,0.99854,0.03052,-0.39673,-0.12207,13638
27.37,0.08643,-0.02783,0.99805,0.12207,-0.15259,-0.12207,13644
27.37,0.08643,-0.02783,0.99805,0.06104,-0.36621,-0.06104,13649
27.37,0.08643,-0.02783,0.99902,0.00000,-0.33569,-0.03052,13655
27.38,0.08643,-0.02783,0.99902,0.06104,-0.24414,-0.06104,13660
27.38,0.08643,-0.02832,1.00000,0.03052,-0.24414,-0.03052,13666
27.40,0.08643,-0.02832,1.00098,0.03052,-0.30518,-0.06104,13671
27.40,0.08643,-0.02832,1.00098,0.00000,-0.24414,-0.12207,13677
27.39,0.08691,-0.02783,1.00098,0.03052,-0.21362,0.00000,13683
27.39,0.08691,-0.02783,1.00098,0.09155,-0.27466,-0.06104,13688
27.37,0.08691,-0.02832,1.00098,0.06104,-0.24414,0.00000,13694
27.37,0.08691,-0.02832,1.00098,0.00000,-0.36621,-0.09155,13699
27.37,0.08643,-0.02832,1.00098,0.09155,-0.36621,-0.06104,13705
27.36,0.08643,-0.02832,1.00098,0.06104,-0.30518,-0.06104,13710
27.36,0.08643,-0.02832,0.99951,0.06104,-0.27466,-0.06104,13716
27.38,0.08789,-0.02930,0.99902,-0.03052,-0.30518,0.06104,13721
27.38,0.08789,-0.02930,0.99902,0.15259,-0.24414,-0.09155,13727
27.38,0.08887,-0.02881,0.99951,0.00000,-0.33569,-0.12207,13732
27.38,0.08887,-0.02881,0.99951,0.00000,-0.36621,-0.03052,13738
27.34,0.08789,-0.02881,1.00049,-0.03052,-0.27466,0.00000,13743
27.37,0.08789,-0.02881,1.00049,0.12207,-0.30518,-0.03052,13749
27.37,0.08643,-0.02881,1.00000,0.09155,-0.39673,-0.09155,13755
27.38,0.08643,-0.02881,1.00000,-0.03052,-0.27466,-0.15259,13760
27.38,0.08594,-0.02832,0.99854,0.09155,-0.24414,-0.06104,13766
27.40,0.08643,-0.02783,0.99854,-0.03052,-0.18311,0.00000,13771
27.40,0.08643,-0.02783,0.99854,0.03052,-0.24414,-0.09155,13777
27.42,0.08789,-0.02734,0.99902,0.06104,-0.24414,-0.12207,13782
27.42,0.08789,-0.02734,0.99902,0.15259,-0.24414,-0.09155,13788
27.38,0.08789,-0.02832,1.00000,0.03052,-0.33569,0.00000,13794
27.36,0.08789,-0.02832,1.00000,-0.03052,-0.30518,-0.09155,13799
27.36,0.08740,-0.02881,0.99951,0.00000,-0.18311,-0.09155,13805
27.38,0.08740,-0.02881,0.99951,0.03052,-0.27466,0.00000,13810
27.38,0.08691,-0.02881,0.99902,0.03052,-0.24414,-0.06104,13816
27.35,0.08643,-0.02832,0.99805,0.00000,-0.21362,0.00000,13821
27.35,0.08643,-0.02832,0.99805,0.06104,-0.18311,0.03052,13827
27.41,0.08643,-0.02783,0.99805,0.15259,-0.21362,-0.06104,13832
27.41,0.08643,-0.02783,0.99805,-0.03052,-0.39673,-0.12207,13838
27.38,0.08691,-0.02783,1.00000,0.03052,-0.18311,-0.18311,13843
27.40,0.08691,-0.02783,1.00000,0.00000,-0.24414,-0.06104,13849
27.40,0.08691,-0.02783,1.00098,0.03052,-0.33569,-0.03052,13854
27.38,0.08691,-0.02783,1.00098,0.09155,-0.21362,-0.03052,13860
27.38,0.08691,-0.02734,1.00049,-0.12207,-0.24414,0.00000,13866
27.33,0.08594,-0.02783,0.99902,0.03052,-0.30518,-0.09155,13871
27.33,0.08594,-0.02783,0.99902,0.12207,-0.24414,-0.06104,13877
27.37,0.08545,-0.02881,0.99805,0.09155,-0.30518,-0.09155,13882
27.37,0.08545,-0.02881,0.99805,0.03052,-0.30518,-0.03052,13888
27.35,0.08594,-0.02881,0.99854,0.03052,-0.27466,-0.03052,13893
27.40,0.08594,-0.02881,0.99854,0.03052,-0.21362,-0.03052,13899
27.40,0.08643,-0.02881,1.00000,0.03052,-0.30518,-0.03052,13904
27.37,0.08643,-0.02881,1.00000,0.03052,-0.27466,-0.18311,13910
27.37,0.08691,-0.02881,1.00049,0.18311,-0.21362,0.00000,13916
27.39,0.08691,-0.02881,1.00049,0.03052,-0.27466,-0.03052,13921
27.39,0.08691,-0.02881,1.00049,-0.06104,-0.27466,-0.03052,13927
27.38,0.08643,-0.02832,1.00049,0.00000,-0.27466,0.00000,13932
27.38,0.08643,-0.02832,1.00049,0.09155,-0.30518,-0.06104,13938
27.40,0.08643,-0.02881,1.00098,0.09155,-0.30518,-0.03052,13943
27.40,0.08643,-0.02881,1.00098,0.03052,-0.30518,-0.09155,13949
27.40,0.08643,-0.02930,1.00098,0.03052,-0.21362,-0.09155,13954
27.41,0.08594,-0.02881,0.99951,0.03052,-0.24414,-0.03052,13960
27.41,0.08594,-0.02881,0.99951,-0.03052,-0.24414,-0.06104,13965
27.38,0.08594,-0.02832,0.99854,0.03052,-0.27466,-0.03052,13971
27.38,0.08594,-0.02832,0.99854,0.00000,-0.30518,-0.06104,13977
27.36,0.08643,-0.02783,0.99854,0.15259,-0.27466,-0.03052,13982
27.36,0.08643,-0.02783,0.99854,0.09155,-0.33569,-0.18311,13988
27.38,0.08643,-0.02783,0.99951,0.00000,-0.33569,0.03052,13993
27.36,0.08643,-0.02783,0.99951,0.09155,-0.27466,0.03052,13999
27.36,0.08643,-0.02832,1.00049,0.12207,-0.24414,-0.12207,14004
27.37,0.08643,-0.02881,1.00098,0.03052,-0.30518,-0.06104,14010
27.37,0.08643,-0.02881,1.00098,0.06104,-0.18311,-0.15259,14015
27.41,0.08643,-0.02881,1.00049,0.09155,-0.33569,-0.15259,14021
27.41,0.08643,-0.02881,1.00049,0.12207,-0.30518,-0.06104,14026
27.37,0.08740,-0.02881,1.00000,0.06104,-0.27466,-0.06104,14032
27.37,0.08740,-0.02881,1.00000,0.12207,-0.27466,-0.09155,14037
27.36,0.08691,-0.02930,0.99951,0.06104,-0.18311,0.00000,14043
27.37,0.08691,-0.02930,0.99951,0.00000,-0.30518,-0.09155,14049
27.37,0.08594,-0.02979,0.99951,-0.06104,-0.27466,-0.12207,14054
27.38,0.08545,-0.02881,0.99902,0.15259,-0.33569,-0.06104,14060
27.38,0.08545,-0.02881,0.99902,0.09155,-0.27466,-0.09155,14065
27.40,0.08594,-0.02832,0.99854,0.00000,-0.27466,-0.06104,14071
27.40,0.08594,-0.02832,0.99854,0.06104,-0.24414,-0.15259,14076
27.38,0.08643,-0.02881,0.99854,0.03052,-0.24414,0.03052,14082
27.38,0.08643,-0.02881,0.99854,0.00000,-0.18311,-0.09155,14087
27.38,0.08643,-0.02979,0.99902,0.03052,-0.21362,-0.03052,14093
27.37,0.08643,-0.02979,0.99902,0.00000,-0.36621,0.00000,14098
27.37,0.08643,-0.02979,0.99951,0.03052,-0.33569,-0.12207,14104
27.36,0.08643,-0.02881,1.00000,-0.06104,-0.18311,0.00000,14110
27.36,0.08643,-0.02881,1.00000,0.00000,-0.27466,-0.12207,14115
27.38,0.08740,-0.02832,1.00049,0.03052,-0.33569,-0.09155,14121
27.38,0.08740,-0.02832,1.00049,0.00000,-0.27466,0.00000,14126
27.39,0.08740,-0.02783,1.00049,0.09155,-0.30518,-0.03052,14132
27.39,0.08740,-0.02783,1.00049,0.12207,-0.24414,-0.06104,14137
27.39,0.08691,-0.02832,1.00000,0.03052,-0.33569,0.00000,14143
27.40,0.08691,-0.02832,1.00000,0.00000,-0.30518,0.00000,14148
27.40,0.08594,-0.02881,1.00000,0.12207,-0.33569,-0.12207,14154
27.38,0.08594,-0.02881,0.99951,0.06104,-0.30518,-0.09155,14159
27.38,0.08594,-0.02881,0.99951,0.00000,-0.33569,-0.12207,14165
27.35,0.08691,-0.02783,1.00000,0.06104,-0.21362,-0.09155,14170
27.35,0.08691,-0.02783,1.00000,0.00000,-0.18311,-0.15259,14176
27.35,0.08691,-0.02783,1.00146,0.15259,-0.24414,-0.03052,14181
27.35,0.08691,-0.02783,1.00146,0.12207,-0.24414,-0.06104,14187
27.38,0.08740,-0.02881,1.00098,0.00000,-0.24414,-0.09155,14193
27.38,0.08740,-0.02881,1.00098,0.06104,-0.36621,-0.06104,14198
27.38,0.08691,-0.02930,0.99951,0.00000,-0.42725,-0.12207,14204
27.40,0.08643,-0.02881,0.99902,0.12207,-0.33569,0.06104,14209
27.40,0.08643,-0.02881,0.99902,0.06104,-0.24414,0.03052,14215
27.40,0.08740,-0.02881,0.99902,0.09155,-0.33569,-0.03052,14220
27.40,0.08740,-0.02881,0.99902,0.12207,-0.33569,0.00000,14226
27.39,0.08691,-0.02881,0.99951,0.03052,-0.33569,-0.12207,14231
27.39,0.08691,-0.02881,0.99951,0.03052,-0.27466,-0.12207,14237
27.40,0.08643,-0.02783,1.00000,0.12207,-0.21362,-0.15259,14242
27.38,0.08643,-0.02783,1.00000,0.09155,-0.24414,-0.12207,14248
27.38,0.08594,-0.02783,0.99951,0.06104,-0.30518,-0.06104,14253
27.35,0.08545,-0.02881,0.99951,-0.06104,-0.24414,-0.03052,14259
27.35,0.08545,-0.02881,0.99951,-0.06104,-0.21362,-0.09155,14265
27.40,0.08594,-0.02979,0.99902,0.00000,-0.24414,-0.09155,14270
27.40,0.08594,-0.02979,0.99902,0.03052,-0.27466,-0.03052,14276
27.40,0.08691,-0.02979,0.99854,0.06104,-0.21362,-0.12207,14281
27.40,0.08691,-0.02979,0.99854,0.09155,-0.18311,-0.03052,14287
27.40,0.08691,-0.02881,0.99854,0.09155,-0.21362,0.03052,14292
27.37,0.08691,-0.02881,0.99854,0.03052,-0.24414,-0.03052,14298
27.37,0.08643,-0.02783,0.99854,0.06104,-0.27466,-0.15259,14303
27.39,0.08496,-0.02881,0.99902,0.09155,-0.27466,-0.06104,14309
27.39,0.08496,-0.02881,0.99902,0.03052,-0.21362,-0.12207,14314
27.37,0.08496,-0.02979,0.99951,0.09155,-0.21362,-0.12207,14320
27.37,0.08496,-0.02979,0.99951,0.06104,-0.24414,0.00000,14326
27.36,0.08643,-0.02979,1.00000,-0.03052,-0.24414,-0.06104,14331
27.38,0.08643,-0.02979,1.00000,-0.03052,-0.21362,-0.03052,14337
27.38,0.08691,-0.02881,1.00098,0.06104,-0.27466,0.12207,14342
27.38,0.08691,-0.02881,1.00098,0.09155,-0.33569,0.03052,14348
27.38,0.08740,-0.02783,1.00098,0.06104,-0.21362,-0.12207,14353
27.40,0.08740,-0.02734,1.00098,0.00000,-0.24414,0.06104,14359
27.40,0.08740,-0.02734,1.00098,0.09155,-0.42725,0.00000,14364
27.39,0.08740,-0.02734,1.00098,0.06104,-0.33569,-0.09155,14370
27.39,0.08740,-0.02734,1.00098,0.18311,-0.36621,-0.21362,14375
27.41,0.08643,-0.02832,1.00000,0.00000,-0.15259,0.00000,14381
27.43,0.08643,-0.02832,1.00000,-0.03052,-0.18311,-0.03052,14386
27.43,0.08643,-0.02881,0.99951,0.00000,-0.24414,-0.09155,14392
27.41,0.08643,-0.02881,0.99951,0.03052,-0.24414,-0.03052,14398
27.41,0.08643,-0.02832,1.00000,0.06104,-0.36621,-0.03052,14403
27.43,0.08594,-0.02783,1.00049,0.09155,-0.27466,-0.06104,14409
27.43,0.08594,-0.02783,1.00049,0.03052,-0.27466,-0.12207,14414
27.41,0.08594,-0.02783,1.00000,0.06104,-0.30518,-0.06104,14420
27.41,0.08594,-0.02783,1.00000,0.00000,-0.24414,0.00000,14425
27.41,0.08691,-0.02832,0.99902,0.06104,-0.21362,0.00000,14431
27.38,0.08691,-0.02832,0.99902,0.09155,-0.18311,-0.03052,14436
27.38,0.08691,-0.02832,0.99805,0.15259,-0.27466,-0.06104,14442
27.41,0.08691,-0.02832,0.99805,0.12207,-0.30518,-0.03052,14447
27.41,0.08691,-0.02686,0.99805,0.03052,-0.36621,0.00000,14453
27.40,0.08740,-0.02637,0.99902,0.09155,-0.27466,-0.06104,14458
27.40,0.08740,-0.02637,0.99902,0.06104,-0.24414,-0.06104,14464
27.38,0.08691,-0.02686,0.99902,-0.09155,-0.24414,0.00000,14469
27.38,0.08691,-0.02686,0.99902,0.09155,-0.33569,-0.12207,14475
27.36,0.08691,-0.02783,0.99902,0.18311,-0.21362,-0.12207,14481
27.40,0.08691,-0.02783,0.99902,0.06104,-0.24414,-0.03052,14486
27.40,0.08643,-0.02832,0.99902,0.15259,-0.30518,0.03052,14492
27.40,0.08643,-0.02832,0.99902,0.03052,-0.24414,-0.03052,14497
27.40,0.08594,-0.02832,0.99854,0.00000,-0.33569,-0.03052,14503
27.38,0.08545,-0.02881,0.99756,0.03052,-0.24414,-0.03052,14508
27.38,0.08545,-0.02881,0.99756,0.03052,-0.30518,0.00000,14514
27.41,0.08496,-0.02930,0.99756,0.12207,-0.33569,0.00000,14519
27.41,0.08496,-0.02930,0.99756,0.00000,-0.30518,-0.03052,14525
27.39,0.08447,-0.02832,0.99707,0.12207,-0.33569,0.00000,14530
27.39,0.08447,-0.02832,0.99707,0.00000,-0.30518,-0.03052,14536
27.39,0.08447,-0.02783,0.99707,-0.06104,-0.27466,-0.09155,14541
27.41,0.08447,-0.02783,0.99707,0.00000,-0.30518,-0.15259,14547
27.41,0.08594,-0.02832,0.99854,0.15259,-0.27466,-0.03052,14552
27.39,0.08740,-0.02832,1.00146,0.12207,-0.27466,-0.06104,14558
27.39,0.08740,-0.02832,1.00146,0.12207,-0.39673,-0.15259,14564
27.40,0.08691,-0.02881,1.00244,0.00000,-0.27466,-0.12207,14569
27.40,0.08691,-0.02881,1.00244,-0.09155,-0.27466,-0.03052,14575
27.41,0.08545,-0.02881,1.00195,-0.06104,-0.27466,-0.06104,14580
27.40,0.08545,-0.02881,1.00195,-0.09155,-0.33569,-0.09155,14586
27.40,0.08545,-0.02930,1.00146,0.03052,-0.39673,-0.06104,14592
27.41,0.08691,-0.02930,1.00098,0.03052,-0.30518,-0.03052,14597
27.41,0.08691,-0.02930,1.00098,0.06104,-0.27466,-0.09155,14603
27.41,0.08838,-0.02832,1.00049,0.00000,-0.27466,-0.06104,14608
27.41,0.08838,-0.02832,1.00049,0.03052,-0.33569,0.00000,14614
27.40,0.08838,-0.02832,0.99902,0.15259,-0.30518,0.03052,14619
27.40,0.08838,-0.02832,0.99902,0.06104,-0.33569,0.00000,14625
27.40,0.08691,-0.02930,0.99756,0.09155,-0.36621,0.00000,14630
27.40,0.08691,-0.02930,0.99756,0.03052,-0.24414,-0.21362,14636
27.40,0.08594,-0.02832,0.99707,0.03052,-0.33569,-0.09155,14641
27.38,0.08545,-0.02686,0.99707,0.03052,-0.36621,-0.06104,14647
27.38,0.08545,-0.02686,0.99707,0.09155,-0.30518,0.03052,14652
27.42,0.08496,-0.02588,0.99805,0.03052,-0.39673,-0.03052,14658
27.42,0.08496,-0.02588,0.99805,0.00000,-0.33569,-0.12207,14663
27.39,0.08545,-0.02686,1.00098,0.09155,-0.24414,0.03052,14669
27.39,0.08545,-0.02686,1.00098,0.06104,-0.21362,0.00000,14674
27.40,0.08594,-0.02930,1.00293,0.18311,-0.21362,-0.09155,14680
27.42,0.08594,-0.02930,1.00293,0.09155,-0.33569,-0.12207,14685
27.42,0.08643,-0.03076,1.00342,0.00000,-0.27466,-0.06104,14691
27.40,0.08740,-0.03076,1.00342,0.00000,-0.24414,-0.03052,14696
27.40,0.08740,-0.03076,1.00342,0.00000,-0.21362,-0.06104,14702
27.40,0.08789,-0.02930,1.00244,0.00000,-0.18311,-0.12207,14708
27.40,0.08789,-0.02930,1.00244,0.06104,-0.24414,-0.09155,14713
27.37,0.08740,-0.02783,1.00098,0.00000,-0.30518,-0.12207,14719
27.37,0.08740,-0.02783,1.00098,-0.06104,-0.21362,-0.12207,14724
27.41,0.08691,-0.02783,0.99951,0.00000,-0.24414,0.00000,14730
27.39,0.08691,-0.02783,0.99951,0.00000,-0.24414,-0.09155,14735
27.39,0.08594,-0.02783,0.99756,0.03052,-0.30518,-0.06104,14741
27.39,0.08643,-0.02832,0.99707,-0.06104,-0.24414,-0.06104,14746
27.39,0.08643,-0.02832,0.99707,0.06104,-0.24414,-0.06104,14752
27.38,0.08740,-0.02832,0.99805,0.21362,-0.30518,-0.09155,14758
27.38,0.08740,-0.02832,0.99805,0.03052,-0.33569,-0.09155,14763
27.39,0.08789,-0.02783,1.00000,0.00000,-0.42725,-0.03052,14769
27.39,0.08789,-0.02783,1.00000,0.00000,-0.36621,-0.12207,14774
27.41,0.08691,-0.02783,1.00146,0.00000,-0.18311,-0.09155,14780
27.38,0.08691,-0.02783,1.00146,0.09155,-0.21362,-0.18311,14785
27.38,0.08594,-0.02783,1.00195,0.06104,-0.33569,-0.09155,14791
27.40,0.08545,-0.02832,1.00244,0.00000,-0.21362,-0.09155,14796
27.40,0.08545,-0.02832,1.00244,-0.03052,-0.21362,0.00000,14802
27.40,0.08545,-0.02832,1.00195,0.15259,-0.30518,-0.03052,14808
27.40,0.08545,-0.02832,1.00195,0.12207,-0.33569,-0.03052,14813
27.43,0.08643,-0.02783,1.00049,0.06104,-0.21362,-0.03052,14819
27.37,0.08643,-0.02783,1.00049,0.03052,-0.21362,-0.06104,14824
27.37,0.08691,-0.02832,0.99902,0.12207,-0.33569,-0.06104,14830
27.39,0.08691,-0.02832,0.99902,0.12207,-0.30518,-0.12207,14835
27.39,0.08643,-0.02881,0.99805,0.09155,-0.27466,-0.12207,14841
27.40,0.08643,-0.02832,0.99756,0.06104,-0.30518,-0.06104,14846
27.40,0.08643,-0.02832,0.99756,-0.03052,-0.33569,-0.06104,14852
27.42,0.08643,-0.02832,0.99854,0.03052,-0.27466,-0.09155,14858
27.42,0.08643,-0.02832,0.99854,0.03052,-0.33569,0.00000,14863
27.40,0.08691,-0.02832,0.99902,0.00000,-0.30518,-0.06104,14869
27.36,0.08691,-0.02832,0.99902,0.00000,-0.24414,-0.09155,14874
27.36,0.08643,-0.02832,0.99854,0.12207,-0.27466,-0.09155,14880
27.37,0.08643,-0.02832,0.99854,0.12207,-0.24414,-0.15259,14885
27.37,0.08643,-0.02832,0.99902,0.00000,-0.36621,-0.09155,14891
27.41,0.08643,-0.02881,1.00098,-0.03052,-0.27466,-0.09155,14896
27.41,0.08643,-0.02881,1.00098,0.12207,-0.24414,-0.12207,14902
27.41,0.08740,-0.02930,1.00195,0.06104,-0.27466,-0.03052,14908
27.41,0.08740,-0.02930,1.00195,-0.15259,-0.24414,-0.12207,14913
27.36,0.08691,-0.02930,1.00195,0.00000,-0.27466,-0.12207,14919
27.43,0.08691,-0.02930,1.00195,0.03052,-0.27466,-0.06104,14924
27.43,0.08643,-0.02832,1.00195,0.09155,-0.33569,-0.18311,14930
27.38,0.08691,-0.02783,1.00098,0.06104,-0.27466,-0.03052,14935
27.38,0.08691,-0.02783,1.00098,0.03052,-0.18311,-0.09155,14941
27.39,0.08740,-0.02783,1.00000,0.03052,-0.12207,0.00000,14947
27.39,0.08740,-0.02783,1.00000,0.03052,-0.18311,-0.12207,14952
27.42,0.08691,-0.02734,0.99805,0.03052,-0.33569,-0.09155,14958
27.42,0.08691,-0.02734,0.99805,0.03052,-0.36621,-0.09155,14963
27.38,0.08643,-0.02637,0.99707,0.06104,-0.42725,-0.15259,14969
27.39,0.08643,-0.02637,0.99707,0.09155,-0.24414,-0.15259,14974
27.39,0.08643,-0.02686,0.99756,0.09155,-0.18311,-0.18311,14980
27.38,0.08643,-0.02832,0.99902,0.12207,-0.36621,0.03052,14985
27.38,0.08643,-0.02832,0.99902,0.00000,-0.30518,-0.09155,14991
27.39,0.08691,-0.02930,0.99902,0.06104,-0.30518,-0.21362,14996
27.39,0.08691,-0.02930,0.99902,0.00000,-0.21362,-0.06104,15002
27.44,0.08643,-0.02979,0.99951,0.09155,-0.27466,0.00000,15007
27.44,0.08643,-0.02979,0.99951,0.03052,-0.27466,-0.06104,15013
27.38,0.08594,-0.02930,1.00146,0.12207,-0.27466,-0.12207,15018
27.41,0.08594,-0.02930,1.00146,0.06104,-0.21362,-0.06104,15024
27.41,0.08545,-0.02832,1.00195,0.06104,-0.33569,-0.12207,15030
27.44,0.08545,-0.02783,1.00195,-0.12207,-0.24414,-0.03052,15035
27.44,0.08545,-0.02783,1.00195,0.03052,-0.30518,-0.06104,15041
27.40,0.08594,-0.02783,1.00000,0.03052,-0.30518,-0.12207,15046
27.40,0.08594,-0.02783,1.00000,0.06104,-0.27466,-0.09155,15052
27.39,0.08594,-0.02783,0.99854,0.09155,-0.33569,-0.09155,15057
27.39,0.08594,-0.02783,0.99854,0.03052,-0.24414,-0.09155,15063
27.38,0.08545,-0.02783,0.99805,0.09155,-0.39673,-0.09155,15069
27.42,0.08545,-0.02783,0.99805,0.03052,-0.27466,-0.12207,15074
27.42,0.08496,-0.02832,0.99854,0.03052,-0.30518,-0.03052,15080
27.43,0.08545,-0.02783,0.99951,0.06104,-0.21362,-0.03052,15085
27.43,0.08545,-0.02783,0.99951,0.00000,-0.21362,0.00000,15091
27.41,0.08643,-0.02783,1.00098,0.15259,-0.18311,-0.18311,15096
27.41,0.08643,-0.02783,1.00098,0.12207,-0.24414,-0.06104,15102
27.44,0.08740,-0.02783,1.00146,0.09155,-0.33569,-0.12207,15107
27.39,0.08740,-0.02783,1.00146,0.12207,-0.30518,-0.06104,15113
27.39,0.08740,-0.02832,1.00195,0.15259,-0.27466,-0.09155,15118
27.39,0.08740,-0.02832,1.00195,0.09155,-0.21362,-0.12207,15124
27.39,0.08740,-0.02832,1.00146,0.03052,-0.33569,-0.09155,15130
27.39,0.08691,-0.02881,1.00049,0.06104,-0.30518,-0.06104,15135
27.39,0.08691,-0.02881,1.00049,0.09155,-0.36621,-0.18311,15141
27.43,0.08691,-0.02930,0.99902,0.12207,-0.27466,-0.06104,15146
27.43,0.08691,-0.02930,0.99902,-0.03052,-0.36621,-0.03052,15152
27.40,0.08691,-0.02881,0.99707,0.09155,-0.21362,-0.06104,15157
27.40,0.08691,-0.02881,0.99707,0.12207,-0.18311,-0.12207,15163
27.40,0.08643,-0.02881,0.99658,0.06104,-0.30518,-0.03052,15168
27.39,0.08643,-0.02881,0.99658,0.06104,-0.30518,-0.09155,15174
27.39,0.08545,-0.02881,0.99658,0.00000,-0.33569,-0.09155,15180
27.38,0.08545,-0.02832,0.99756,0.12207,-0.18311,-0.09155,15185
27.38,0.08545,-0.02832,0.99756,-0.12207,-0.39673,-0.09155,15191
27.41,0.08594,-0.02832,0.99951,-0.06104,-0.27466,0.00000,15196
27.41,0.08594,-0.02832,0.99951,0.03052,-0.27466,-0.09155,15202
27.42,0.08594,-0.02832,1.00049,0.15259,-0.24414,-0.09155,15207
27.38,0.08594,-0.02832,1.00049,0.03052,-0.30518,-0.12207,15213
27.38,0.08545,-0.02881,1.00195,0.06104,-0.33569,-0.09155,15219
27.41,0.08643,-0.02832,1.00244,0.06104,-0.15259,-0.12207,15224
27.41,0.08643,-0.02832,1.00244,0.12207,-0.30518,-0.03052,15230
27.41,0.08740,-0.02832,1.00146,0.03052,-0.27466,-0.09155,15235
27.41,0.08740,-0.02832,1.00146,0.00000,-0.24414,-0.09155,15241
27.42,0.08789,-0.02881,1.00000,0.09155,-0.39673,0.00000,15246
27.42,0.08789,-0.02881,1.00000,0.03052,-0.27466,-0.12207,15252
27.42,0.08740,-0.02930,0.99805,0.06104,-0.27466,-0.03052,15257
27.44,0.08740,-0.02930,0.99805,0.03052,-0.24414,-0.06104,15263
27.44,0.08643,-0.02832,0.99609,0.09155,-0.21362,-0.15259,15268
27.40,0.08643,-0.02783,0.99561,0.09155,-0.24414,-0.03052,15274
27.40,0.08643,-0.02783,0.99561,0.03052,-0.36621,0.00000,15280
27.41,0.08643,-0.02832,0.99561,0.12207,-0.30518,-0.06104,15285
27.41,0.08643,-0.02832,0.99561,0.15259,-0.24414,-0.12207,15291
27.40,0.08643,-0.02832,0.99658,0.09155,-0.18311,0.00000,15296
27.40,0.08643,-0.02832,0.99658,0.03052,-0.33569,-0.12207,15302
27.39,0.08691,-0.02881,0.99854,0.03052,-0.24414,-0.12207,15307
27.42,0.08691,-0.02881,0.99854,0.00000,-0.24414,-0.12207,15313
27.42,0.08740,-0.02979,1.00049,0.03052,-0.18311,-0.12207,15318
27.40,0.08643,-0.03027,1.00146,0.09155,-0.33569,0.00000,15324
27.40,0.08643,-0.03027,1.00146,0.03052,-0.27466,-0.06104,15329
27.38,0.08594,-0.02881,1.00244,0.09155,-0.33569,-0.06104,15335
27.38,0.08594,-0.02881,1.00244,0.09155,-0.36621,-0.09155,15340
27.41,0.08594,-0.02832,1.00293,0.03052,-0.27466,-0.06104,15346
27.41,0.08594,-0.02832,1.00293,0.12207,-0.21362,-0.03052,15351
27.37,0.08643,-0.02783,1.00244,0.09155,-0.24414,-0.06104,15357
27.45,0.08643,-0.02783,1.00244,0.06104,-0.15259,-0.09155,15363
27.45,0.08545,-0.02783,1.00049,0.09155,-0.30518,-0.24414,15368
27.39,0.08545,-0.02783,0.99805,-0.03052,-0.21362,-0.09155,15374
27.39,0.08545,-0.02783,0.99805,0.03052,-0.27466,-0.21362,15379
27.42,0.08594,-0.02832,0.99609,-0.03052,-0.18311,-0.18311,15385
27.42,0.08594,-0.02832,0.99609,0.03052,-0.24414,-0.03052,15390
27.40,0.08545,-0.02783,0.99609,0.03052,-0.33569,-0.09155,15396
27.41,0.08545,-0.02783,0.99609,0.09155,-0.24414,-0.03052,15402
27.41,0.08496,-0.02783,0.99756,0.06104,-0.27466,-0.03052,15407
27.39,0.08496,-0.02783,0.99756,0.09155,-0.18311,-0.06104,15413
27.39,0.08545,-0.02783,0.99902,0.06104,-0.30518,-0.03052,15418
27.40,0.08594,-0.02832,1.00098,0.06104,-0.30518,-0.03052,15424
27.40,0.08594,-0.02832,1.00098,0.00000,-0.33569,0.00000,15429
27.41,0.08643,-0.02930,1.00293,0.12207,-0.21362,-0.03052,15435
27.41,0.08643,-0.02930,1.00293,0.09155,-0.30518,-0.03052,15440
27.41,0.08691,-0.03027,1.00342,0.00000,-0.27466,-0.06104,15446
27.38,0.08691,-0.03027,1.00342,0.15259,-0.36621,-0.09155,15451
27.38,0.08740,-0.03076,1.00293,0.06104,-0.30518,-0.06104,15457
27.40,0.08740,-0.03076,1.00293,-0.06104,-0.24414,-0.09155,15463
27.40,0.08691,-0.02979,1.00195,0.09155,-0.27466,-0.12207,15468
27.39,0.08594,-0.02881,1.00146,0.09155,-0.18311,-0.06104,15474
27.39,0.08594,-0.02881,1.00146,0.09155,-0.18311,-0.12207,15479
27.40,0.08545,-0.02734,0.99951,0.06104,-0.27466,0.00000,15485
27.40,0.08545,-0.02734,0.99951,0.03052,-0.24414,0.00000,15490
27.41,0.08545,-0.02734,0.99756,0.06104,-0.27466,-0.09155,15496
27.39,0.08545,-0.02734,0.99756,0.06104,-0.24414,-0.03052,15501
27.39,0.08594,-0.02783,0.99658,0.03052,-0.30518,0.00000,15507
27.42,0.08594,-0.02783,0.99658,-0.03052,-0.30518,-0.06104,15512
27.42,0.08643,-0.02783,0.99707,0.06104,-0.18311,-0.09155,15518
27.39,0.08691,-0.02783,0.99854,0.06104,-0.24414,-0.09155,15524
27.39,0.08691,-0.02783,0.99854,0.06104,-0.33569,-0.09155,15529
27.38,0.08691,-0.02832,1.00049,-0.06104,-0.27466,-0.03052,15535
27.38,0.08691,-0.02832,1.00049,0.09155,-0.27466,0.00000,15540
27.39,0.08740,-0.02881,1.00146,0.09155,-0.30518,-0.03052,15546
27.40,0.08740,-0.02881,1.00146,-0.03052,-0.24414,-0.09155,15551
27.40,0.08691,-0.02930,1.00195,0.00000,-0.21362,-0.06104,15557
27.40,0.08740,-0.02881,1.00195,0.09155,-0.21362,-0.03052,15562
27.40,0.08740,-0.02881,1.00195,0.03052,-0.33569,-0.03052,15568
27.37,0.08740,-0.02783,1.00098,0.09155,-0.30518,0.06104,15574
27.37,0.08740,-0.02783,1.00098,0.03052,-0.15259,-0.06104,15579
27.40,0.08740,-0.02832,1.00000,0.03052,-0.21362,-0.09155,15585
27.40,0.08740,-0.02832,1.00000,0.03052,-0.18311,-0.03052,15590
27.39,0.08789,-0.02881,0.99902,0.00000,-0.36621,0.03052,15596
27.39,0.08789,-0.02881,0.99902,0.09155,-0.33569,-0.09155,15601
27.39,0.08789,-0.02832,0.99854,0.03052,-0.21362,-0.21362,15607
27.44,0.08691,-0.02832,0.99707,0.00000,-0.24414,0.00000,15612
27.44,0.08691,-0.02832,0.99707,0.03052,-0.18311,0.00000,15618
27.37,0.08643,-0.02930,0.99609,0.09155,-0.30518,-0.09155,15623
27.37,0.08643,-0.02930,0.99609,0.03052,-0.30518,-0.03052,15629
27.38,0.08643,-0.02979,0.99756,0.06104,-0.30518,0.00000,15634
27.38,0.08643,-0.02979,0.99756,-0.03052,-0.24414,-0.12207,15640
27.40,0.08643,-0.02881,1.00000,-0.03052,-0.18311,-0.09155,15645
27.41,0.08643,-0.02881,1.00000,0.09155,-0.21362,0.06104,15651
27.41,0.08691,-0.02832,1.00195,0.03052,-0.30518,-0.06104,15657
27.42,0.08740,-0.02832,1.00293,0.06104,-0.21362,-0.15259,15662
27.42,0.08740,-0.02832,1.00293,0.00000,-0.21362,-0.09155,15668
27.39,0.08643,-0.02881,1.00195,0.06104,-0.39673,0.03052,15673
27.39,0.08643,-0.02881,1.00195,0.06104,-0.33569,0.00000,15679
27.39,0.08643,-0.02881,1.00049,0.06104,-0.24414,-0.09155,15684
27.39,0.08643,-0.02881,1.00049,-0.03052,-0.27466,-0.12207,15690
27.41,0.08643,-0.02881,0.99902,0.06104,-0.27466,-0.09155,15695
27.38,0.08643,-0.02881,0.99902,0.15259,-0.27466,-0.12207,15701
27.38,0.08594,-0.02881,0.99756,0.15259,-0.30518,-0.15259,15706
27.41,0.08594,-0.02930,0.99756,0.03052,-0.30518,-0.06104,15712
27.41,0.08594,-0.02930,0.99756,0.00000,-0.24414,-0.12207,15717
27.39,0.08594,-0.02881,0.99756,-0.09155,-0.24414,-0.12207,15723
27.39,0.08594,-0.02881,0.99756,0.00000,-0.33569,-0.09155,15729
27.40,0.08594,-0.02881,0.99805,0.21362,-0.33569,-0.03052,15734
27.40,0.08594,-0.02881,0.99805,0.06104,-0.27466,-0.09155,15740
27.40,0.08643,-0.02979,0.99902,0.03052,-0.30518,-0.15259,15745
27.39,0.08643,-0.02979,0.99902,0.00000,-0.27466,-0.09155,15751
27.39,0.08643,-0.02979,1.00000,0.03052,-0.27466,-0.21362,15756
27.39,0.08691,-0.02930,1.00049,0.06104,-0.33569,-0.15259,15762
27.39,0.08691,-0.02930,1.00049,0.12207,-0.21362,-0.06104,15768
27.38,0.08740,-0.02832,1.00049,0.09155,-0.24414,-0.06104,15773
27.38,0.08740,-0.02832,1.00049,0.00000,-0.30518,-0.09155,15779
27.40,0.08740,-0.02783,1.00098,0.18311,-0.33569,-0.12207,15784
27.40,0.08740,-0.02783,1.00098,0.12207,-0.36621,-0.12207,15790
27.40,0.08643,-0.02783,1.00098,0.06104,-0.30518,-0.12207,15795
27.41,0.08643,-0.02783,1.00098,0.03052,-0.36621,0.09155,15801
27.41,0.08643,-0.02832,1.00000,0.00000,-0.33569,0.03052,15806
27.38,0.08691,-0.02832,0.99902,0.00000,-0.27466,-0.06104,15812
27.38,0.08691,-0.02832,0.99902,0.00000,-0.21362,-0.15259,15817
27.37,0.08643,-0.02734,0.99854,0.03052,-0.18311,-0.06104,15823
27.37,0.08643,-0.02734,0.99854,0.09155,-0.24414,0.00000,15828
27.39,0.08643,-0.02734,0.99902,-0.03052,-0.39673,-0.12207,15834
27.42,0.08643,-0.02734,0.99902,0.00000,-0.36621,-0.15259,15840
27.42,0.08594,-0.02734,0.99854,0.06104,-0.42725,0.00000,15845
27.38,0.08594,-0.02734,0.99854,0.09155,-0.39673,0.00000,15851
27.38,0.08496,-0.02783,0.99805,0.06104,-0.27466,0.03052,15856
27.43,0.08545,-0.02783,0.99902,0.03052,-0.36621,-0.12207,15861
27.43,0.08545,-0.02783,0.99902,0.09155,-0.27466,-0.06104,15867
27.40,0.08643,-0.02783,1.00000,0.09155,-0.21362,0.00000,15873
27.40,0.08643,-0.02783,1.00000,0.06104,-0.27466,-0.06104,15878
27.40,0.08691,-0.02686,1.00098,0.03052,-0.27466,-0.09155,15884
27.40,0.08691,-0.02686,1.00098,0.06104,-0.21362,-0.12207,15889
27.40,0.08691,-0.02734,1.00195,0.09155,-0.39673,-0.12207,15895
27.41,0.08691,-0.02734,1.00195,0.21362,-0.33569,-0.12207,15900
27.41,0.08740,-0.02832,1.00195,0.18311,-0.27466,-0.03052,15906
27.40,0.08740,-0.02930,1.00195,0.03052,-0.21362,0.03052,15911
27.40,0.08740,-0.02930,1.00195,-0.06104,-0.24414,-0.15259,15917
27.40,0.08643,-0.02881,1.00098,0.06104,-0.33569,-0.03052,15922
27.40,0.08643,-0.02881,1.00098,0.12207,-0.24414,-0.09155,15928
27.41,0.08398,-0.02832,0.99609,0.09155,-0.27466,-0.06104,15934
27.39,0.08398,-0.02832,0.99609,0.12207,-0.27466,-0.09155,15939
27.39,0.08008,-0.02979,0.98584,0.21362,-0.39673,-0.21362,15945
27.40,0.08008,-0.02979,0.98584,0.21362,-0.45776,-0.30518,15950
27.40,0.08447,-0.02979,0.99170,0.21362,-0.51880,-0.15259,15956
27.38,0.09668,-0.02637,1.00781,0.09155,0.03052,0.03052,15961
27.38,0.09668,-0.02637,1.00781,0.03052,0.24414,0.09155,15967
27.43,0.09375,-0.02393,1.00684,-0.15259,-0.06104,-0.03052,15972
27.43,0.09375,-0.02393,1.00684,-0.30518,-0.39673,-0.24414,15978
27.35,0.08301,-0.02734,1.00049,0.18311,-0.48828,-0.15259,15983
27.40,0.08301,-0.02734,1.00049,0.45776,-0.36621,-0.18311,15989
27.40,0.08496,-0.03174,1.00195,0.42725,-0.12207,-0.09155,15994
27.40,0.08496,-0.03174,1.00195,0.15259,-0.09155,-0.12207,16000
27.40,0.08984,-0.03027,1.00879,-0.12207,-0.15259,0.06104,16006
27.42,0.08984,-0.02588,1.01221,-0.15259,-0.39673,-0.03052,16011
27.42,0.08984,-0.02588,1.01221,0.00000,-0.27466,-0.09155,16017
27.39,0.08643,-0.02539,1.00879,0.21362,-0.21362,-0.03052,16022
27.39,0.08643,-0.02539,1.00879,0.30518,-0.18311,-0.06104,16028
27.45,0.08350,-0.02832,1.00146,0.21362,-0.39673,-0.09155,16033
27.41,0.08350,-0.02832,1.00146,0.06104,-0.39673,-0.12207,16039
27.41,0.08496,-0.03076,0.99707,0.06104,-0.27466,-0.12207,16045
27.40,0.08496,-0.03076,0.99707,0.15259,-0.21362,-0.18311,16050
27.40,0.08740,-0.02832,0.99463,0.18311,-0.09155,-0.06104,16056
27.39,0.08643,-0.02393,0.99219,0.24414,-0.24414,-0.12207,16061
27.39,0.08643,-0.02393,0.99219,0.09155,-0.27466,-0.15259,16067
27.41,0.08496,-0.02295,0.99121,-0.18311,-0.33569,-0.15259,16072
27.41,0.08496,-0.02295,0.99121,0.06104,-0.24414,-0.12207,16078
27.41,0.08496,-0.02637,0.99170,0.18311,-0.24414,-0.18311,16083
27.41,0.08496,-0.02637,0.99170,0.09155,-0.15259,-0.09155,16089
27.41,0.08545,-0.03027,0.99414,0.00000,-0.27466,-0.15259,16095
27.38,0.08789,-0.03271,0.99854,0.03052,-0.39673,-0.03052,16100
27.38,0.08789,-0.03271,0.99854,0.15259,0.00000,0.00000,16106
27.41,0.08887,-0.03223,1.00439,0.27466,-0.45776,-0.18311,16111
27.41,0.08887,-0.03223,1.00439,0.12207,-0.12207,-0.15259,16117
27.41,0.08691,-0.02930,1.00732,0.12207,-0.42725,-0.09155,16122
27.41,0.08691,-0.02930,1.00732,0.00000,-0.12207,-0.06104,16128
27.38,0.08643,-0.02637,1.00635,0.00000,-0.27466,0.00000,16133
27.40,0.08643,-0.02637,1.00635,0.09155,-0.09155,0.03052,16139
27.40,0.08594,-0.02441,1.00342,0.09155,-0.24414,-0.09155,16144
27.39,0.08496,-0.02490,1.00000,0.15259,-0.30518,-0.09155,16150
27.39,0.08496,-0.02490,1.00000,0.03052,-0.39673,0.00000,16155
27.44,0.08447,-0.02588,0.99756,0.00000,-0.39673,-0.09155,16161
27.44,0.08447,-0.02588,0.99756,-0.06104,-0.27466,-0.12207,16166
27.42,0.08643,-0.02734,0.99707,0.09155,-0.15259,-0.09155,16172
27.42,0.08643,-0.02734,0.99707,-0.03052,-0.21362,-0.09155,16178
27.43,0.08887,-0.02832,0.99707,0.09155,-0.27466,-0.09155,16183
27.39,0.08887,-0.02832,0.99707,0.03052,-0.30518,-0.06104,16189
27.39,0.08936,-0.02881,0.99658,0.03052,-0.30518,-0.03052,16194
27.43,0.08789,-0.02930,0.99707,0.03052,-0.30518,-0.15259,16200
27.43,0.08789,-0.02930,0.99707,0.06104,-0.39673,-0.06104,16205
27.41,0.08643,-0.02881,0.99854,0.03052,-0.30518,-0.12207,16211
27.41,0.08643,-0.02881,0.99854,0.06104,-0.33569,-0.21362,16216
27.39,0.08594,-0.02832,1.00098,0.00000,-0.21362,0.06104,16222
27.39,0.08594,-0.02832,1.00098,0.15259,-0.18311,0.03052,16228
27.40,0.08740,-0.02881,1.00391,0.09155,-0.18311,-0.06104,16233
27.40,0.08740,-0.02881,1.00391,0.03052,-0.33569,0.03052,16239
27.40,0.08789,-0.03076,1.00488,0.03052,-0.33569,0.06104,16244
27.43,0.08691,-0.03125,1.00439,0.12207,-0.24414,0.00000,16249
27.43,0.08691,-0.03125,1.00439,0.09155,-0.30518,-0.09155,16255
27.43,0.08594,-0.02930,1.00244,-0.03052,-0.30518,-0.06104,16260
27.43,0.08594,-0.02930,1.00244,0.00000,-0.24414,-0.06104,16266
27.41,0.08496,-0.02686,0.99951,0.12207,-0.24414,-0.06104,16272
27.41,0.08496,-0.02686,0.99951,-0.03052,-0.27466,-0.18311,16277
27.41,0.08496,-0.02637,0.99756,0.00000,-0.33569,-0.09155,16283
27.39,0.08496,-0.02637,0.99756,0.00000,-0.33569,-0.06104,16288
27.39,0.08545,-0.02734,0.99658,0.00000,-0.30518,-0.03052,16294
27.41,0.08594,-0.02881,0.99609,0.00000,-0.24414,-0.15259,16300
27.41,0.08594,-0.02881,0.99609,0.09155,-0.33569,-0.09155,16305
27.42,0.08643,-0.02881,0.99609,0.15259,-0.24414,-0.12207,16311
27.42,0.08643,-0.02881,0.99609,0.12207,-0.24414,-0.03052,16316
27.41,0.08643,-0.02832,0.99756,0.06104,-0.27466,-0.15259,16322
27.40,0.08643,-0.02832,0.99756,0.03052,-0.24414,-0.09155,16327
27.40,0.08643,-0.02734,1.00049,0.18311,-0.30518,-0.15259,16333
27.44,0.08643,-0.02734,1.00049,0.09155,-0.42725,-0.24414,16338
27.44,0.08691,-0.02734,1.00293,0.18311,-0.21362,-0.09155,16344
27.40,0.08740,-0.02881,1.00342,0.09155,-0.18311,-0.06104,16349
27.40,0.08740,-0.02881,1.00342,0.00000,-0.21362,-0.18311,16355
27.40,0.08740,-0.02930,1.00195,0.03052,-0.33569,-0.06104,16361
27.40,0.08740,-0.02930,1.00195,0.15259,-0.27466,-0.06104,16366
27.42,0.08643,-0.02930,1.00049,0.06104,-0.21362,0.00000,16372
27.43,0.08643,-0.02930,1.00049,0.03052,-0.24414,-0.06104,16377
27.43,0.08643,-0.02881,1.00000,0.03052,-0.24414,-0.06104,16383
27.40,0.08643,-0.02881,1.00000,0.12207,-0.12207,0.00000,16388
27.40,0.08643,-0.02734,0.99902,0.06104,-0.27466,-0.06104,16394
27.40,0.08691,-0.02686,0.99756,0.03052,-0.39673,-0.09155,16399
27.40,0.08691,-0.02686,0.99756,0.15259,-0.18311,-0.03052,16405
27.40,0.08740,-0.02686,0.99658,0.18311,-0.21362,-0.06104,16410
27.40,0.08740,-0.02686,0.99658,0.12207,-0.15259,-0.21362,16416
27.40,0.08691,-0.02734,0.99707,0.03052,-0.27466,-0.15259,16421
27.40,0.08691,-0.02734,0.99707,0.06104,-0.27466,-0.06104,16427
27.40,0.08545,-0.02881,0.99854,0.06104,-0.39673,0.09155,16433
27.41,0.08545,-0.02881,0.99854,0.09155,-0.24414,0.06104,16438
27.41,0.08496,-0.02930,0.99951,0.12207,-0.21362,-0.15259,16443
27.39,0.08643,-0.02832,1.00098,0.06104,-0.15259,-0.03052,16449
27.39,0.08643,-0.02832,1.00098,0.00000,-0.15259,-0.12207,16455
27.42,0.08740,-0.02734,1.00244,0.06104,-0.27466,-0.12207,16460
27.42,0.08740,-0.02734,1.00244,0.09155,-0.33569,0.03052,16466
27.43,0.08691,-0.02832,1.00146,0.06104,-0.30518,0.03052,16471
27.38,0.08691,-0.02832,1.00146,-0.06104,-0.21362,-0.03052,16477
27.38,0.08691,-0.02930,1.00049,0.00000,-0.24414,-0.03052,16482
27.40,0.08691,-0.02930,1.00049,0.12207,-0.21362,-0.09155,16488
27.40,0.08691,-0.02979,0.99951,0.03052,-0.15259,-0.03052,16493
27.39,0.08691,-0.02979,0.99854,0.12207,-0.24414,-0.03052,16499
27.39,0.08691,-0.02979,0.99854,0.06104,-0.21362,0.00000,16504
27.39,0.08594,-0.02881,0.99756,0.06104,-0.21362,-0.12207,16510
27.39,0.08594,-0.02881,0.99756,0.09155,-0.27466,-0.15259,16516
27.42,0.08545,-0.02832,0.99756,0.00000,-0.27466,-0.09155,16521
27.40,0.08545,-0.02832,0.99756,0.03052,-0.24414,-0.06104,16527
27.40,0.08594,-0.02783,0.99805,0.09155,-0.18311,-0.12207,16532
27.40,0.08594,-0.02783,0.99805,0.06104,-0.33569,-0.18311,16538
27.40,0.08594,-0.02734,0.99902,0.09155,-0.12207,-0.06104,16543
27.41,0.08643,-0.02832,0.99951,0.12207,-0.30518,-0.03052,16549
27.41,0.08643,-0.02832,0.99951,0.03052,-0.24414,-0.03052,16554
27.42,0.08740,-0.02881,1.00049,0.15259,-0.12207,-0.09155,16560
27.42,0.08740,-0.02881,1.00049,0.06104,-0.42725,-0.06104,16565
27.38,0.08740,-0.02734,1.00195,0.15259,-0.24414,-0.09155,16571
27.43,0.08740,-0.02734,1.00195,0.09155,-0.33569,-0.09155,16577
27.43,0.08643,-0.02686,1.00195,0.03052,-0.24414,0.03052,16582
27.41,0.08643,-0.02686,1.00195,0.06104,-0.15259,-0.21362,16588
27.41,0.08545,-0.02588,1.00146,0.15259,-0.33569,0.00000,16593
27.40,0.08496,-0.02588,1.00049,0.12207,-0.36621,-0.06104,16599
27.40,0.08496,-0.02588,1.00049,0.18311,-0.30518,-0.15259,16604
27.41,0.08594,-0.02734,0.99902,0.09155,-0.24414,-0.12207,16610
27.41,0.08594,-0.02734,0.99902,0.06104,-0.27466,0.00000,16615
27.38,0.08594,-0.02881,0.99805,0.15259,-0.18311,-0.15259,16621
27.44,0.08594,-0.02881,0.99805,0.06104,-0.21362,-0.12207,16626
27.44,0.08545,-0.02881,0.99854,0.12207,-0.30518,-0.09155,16632
27.40,0.08545,-0.02881,0.99854,0.06104,-0.12207,-0.09155,16637
27.40,0.08545,-0.02783,0.99951,-0.03052,-0.27466,-0.06104,16643
27.40,0.08594,-0.02686,0.99902,0.09155,-0.27466,-0.09155,16649
27.40,0.08594,-0.02686,0.99902,0.06104,-0.36621,-0.06104,16654
27.43,0.08594,-0.02637,0.99854,0.09155,-0.33569,-0.12207,16660
27.43,0.08594,-0.02637,0.99854,0.03052,-0.30518,-0.12207,16665
27.40,0.08545,-0.02686,1.00000,0.06104,-0.18311,-0.15259,16671
27.41,0.08545,-0.02686,1.00000,0.03052,-0.27466,-0.03052,16676
27.41,0.08545,-0.02881,1.00146,0.09155,-0.27466,0.03052,16682
27.39,0.08594,-0.03027,1.00195,0.15259,-0.18311,-0.03052,16687
27.39,0.08594,-0.03027,1.00195,0.03052,-0.21362,-0.06104,16693
27.45,0.08643,-0.03076,1.00000,0.06104,-0.30518,-0.12207,16698
27.45,0.08643,-0.03076,1.00000,0.09155,-0.36621,-0.06104,16704
27.41,0.08643,-0.03027,0.99707,0.06104,-0.33569,-0.06104,16710
27.41,0.08643,-0.03027,0.99707,0.18311,-0.30518,-0.03052,16715
27.44,0.08789,-0.02881,0.99854,0.09155,-0.21362,-0.03052,16721
27.45,0.08789,-0.02881,0.99854,0.06104,-0.15259,0.15259,16726
27.45,0.08740,-0.02588,1.00098,-0.09155,-0.27466,-0.03052,16732
27.42,0.08643,-0.02344,1.00244,-0.06104,-0.24414,0.06104,16737
27.42,0.08643,-0.02344,1.00244,-0.12207,-0.33569,0.09155,16743
27.46,0.08643,-0.02393,1.00439,-0.03052,-0.18311,-0.09155,16748
27.46,0.08643,-0.02393,1.00439,-0.06104,-0.21362,-0.21362,16754
27.42,0.08643,-0.02783,1.00439,0.03052,-0.33569,0.00000,16760
27.42,0.08643,-0.02783,1.00439,0.12207,-0.42725,-0.06104,16765
27.44,0.08594,-0.03223,1.00293,0.03052,-0.42725,-0.03052,16771
27.44,0.08594,-0.03223,1.00293,0.12207,-0.42725,0.09155,16776
27.44,0.08691,-0.03223,1.00195,-0.09155,-0.15259,0.03052,16782
27.43,0.08789,-0.02930,1.00146,0.03052,-0.15259,0.09155,16787
27.43,0.08789,-0.02930,1.00146,0.06104,-0.24414,0.09155,16793
27.41,0.08643,-0.02637,0.99902,0.09155,-0.27466,-0.06104,16798
27.41,0.08643,-0.02637,0.99902,0.00000,-0.33569,-0.15259,16804
27.42,0.08496,-0.02490,0.99609,0.00000,-0.33569,-0.06104,16809
27.42,0.08496,-0.02490,0.99609,-0.03052,-0.21362,-0.09155,16815
27.42,0.08545,-0.02539,0.99561,-0.09155,-0.18311,-0.03052,16821
27.43,0.08545,-0.02539,0.99561,-0.18311,-0.33569,-0.06104,16826
27.43,0.08643,-0.02686,0.99707,-0.12207,-0.27466,-0.12207,16832
27.41,0.08594,-0.02881,0.99902,0.00000,-0.27466,-0.06104,16837
27.41,0.08594,-0.02881,0.99902,0.09155,-0.33569,-0.09155,16843
27.43,0.08594,-0.03027,0.99902,0.00000,-0.30518,-0.15259,16849
27.43,0.08594,-0.03027,0.99902,0.03052,-0.30518,-0.06104,16854
27.41,0.08545,-0.03174,0.99805,0.06104,-0.21362,-0.09155,16860
27.45,0.08545,-0.03174,0.99805,0.09155,-0.21362,-0.15259,16865
27.45,0.08545,-0.03174,0.99805,0.06104,-0.24414,-0.06104,16871
27.40,0.08545,-0.03174,0.99805,0.09155,-0.27466,-0.06104,16876
27.40,0.08643,-0.03027,0.99854,0.06104,-0.33569,-0.09155,16882
27.42,0.08691,-0.02734,0.99854,-0.06104,-0.24414,-0.12207,16887
27.42,0.08691,-0.02734,0.99854,-0.09155,-0.27466,-0.09155,16893
27.41,0.08594,-0.02588,0.99854,0.03052,-0.33569,-0.12207,16899
27.41,0.08594,-0.02588,0.99854,0.12207,-0.36621,0.00000,16904
27.45,0.08545,-0.02539,0.99854,0.12207,-0.30518,-0.03052,16910
27.42,0.08545,-0.02539,0.99854,0.06104,-0.24414,0.00000,16915
27.42,0.08496,-0.02490,0.99805,-0.03052,-0.27466,-0.06104,16921
27.39,0.08496,-0.02539,0.99951,0.06104,-0.30518,0.03052,16926
27.39,0.08496,-0.02539,0.99951,0.15259,-0.30518,-0.15259,16932
27.40,0.08545,-0.02686,1.00244,0.00000,-0.30518,-0.09155,16937
27.40,0.08545,-0.02686,1.00244,0.03052,-0.24414,-0.06104,16943
27.42,0.08643,-0.02930,1.00293,0.06104,-0.39673,-0.03052,16948
27.42,0.08643,-0.02930,1.00293,0.00000,-0.24414,0.00000,16954
27.43,0.08838,-0.03076,1.00293,0.09155,-0.30518,0.09155,16959
27.43,0.08838,-0.03076,1.00293,0.18311,-0.27466,0.06104,16965
27.43,0.08838,-0.03125,1.00293,0.03052,-0.27466,-0.09155,16970
27.43,0.08643,-0.03076,1.00146,-0.03052,-0.36621,0.03052,16976
27.43,0.08643,-0.03076,1.00146,0.00000,-0.30518,-0.09155,16982
27.42,0.08545,-0.02881,1.00000,0.03052,-0.18311,-0.06104,16987
27.42,0.08545,-0.02881,1.00000,0.09155,-0.30518,-0.12207,16993
27.42,0.08643,-0.02686,1.00000,0.12207,-0.27466,-0.09155,16998
27.42,0.08643,-0.02686,1.00000,-0.03052,-0.33569,-0.09155,17004
27.39,0.08691,-0.02637,1.00000,-0.09155,-0.30518,-0.15259,17009
27.40,0.08691,-0.02637,1.00000,-0.03052,-0.24414,-0.09155,17015
27.40,0.08643,-0.02686,0.99951,-0.03052,-0.33569,-0.06104,17021
27.41,0.08594,-0.02832,1.00000,-0.03052,-0.30518,-0.06104,17026
27.41,0.08594,-0.02832,1.00000,0.09155,-0.18311,-0.12207,17032
27.39,0.08643,-0.02930,1.00000,-0.03052,-0.30518,-0.15259,17037
27.39,0.08643,-0.02930,1.00000,0.09155,-0.42725,-0.06104,17043
27.41,0.08691,-0.02881,1.00000,0.12207,-0.21362,-0.06104,17049
27.41,0.08691,-0.02881,1.00000,0.03052,-0.24414,-0.06104,17054
27.41,0.08691,-0.02881,1.00000,0.00000,-0.30518,-0.09155,17060
27.40,0.08691,-0.02881,1.00000,0.06104,-0.27466,-0.03052,17065
27.40,0.08643,-0.02881,1.00049,0.12207,-0.33569,0.00000,17071
27.43,0.08594,-0.02734,1.00049,0.00000,-0.30518,0.00000,17076
27.43,0.08594,-0.02734,1.00049,0.09155,-0.30518,-0.09155,17082
27.43,0.08594,-0.02637,0.99951,0.21362,-0.30518,-0.12207,17087
27.43,0.08594,-0.02637,0.99951,0.06104,-0.27466,-0.03052,17093
27.44,0.08643,-0.02686,0.99951,0.09155,-0.33569,0.03052,17098
27.44,0.08643,-0.02686,0.99951,0.06104,-0.30518,-0.09155,17104
27.44,0.08691,-0.02881,0.99951,0.03052,-0.33569,-0.12207,17109
27.41,0.08691,-0.02881,0.99951,-0.06104,-0.27466,-0.06104,17115
27.41,0.08740,-0.02979,0.99854,0.03052,-0.27466,-0.06104,17121
27.43,0.08740,-0.02881,0.99805,0.03052,-0.27466,-0.12207,17126
27.43,0.08740,-0.02881,0.99805,0.12207,-0.27466,0.00000,17132
27.44,0.08643,-0.02783,0.99805,0.06104,-0.21362,-0.06104,17137
27.44,0.08643,-0.02783,0.99805,0.03052,-0.36621,-0.06104,17143
27.44,0.08545,-0.02734,0.99854,0.00000,-0.36621,-0.18311,17148
27.43,0.08545,-0.02734,0.99854,0.03052,-0.30518,-0.21362,17154
27.43,0.08643,-0.02734,1.00049,0.06104,-0.27466,-0.06104,17159
27.41,0.08643,-0.02734,1.00049,0.03052,-0.15259,-0.12207,17165
27.41,0.08691,-0.02783,1.00146,0.03052,-0.39673,0.00000,17171
27.42,0.08691,-0.02783,1.00098,-0.06104,-0.30518,-0.06104,17176
27.42,0.08691,-0.02783,1.00098,0.06104,-0.30518,-0.09155,17182
27.41,0.08740,-0.02832,1.00049,0.06104,-0.21362,-0.12207,17187
27.41,0.08740,-0.02832,1.00049,0.06104,-0.33569,-0.15259,17193
27.42,0.08789,-0.02930,1.00049,0.09155,-0.30518,-0.09155,17198
27.40,0.08789,-0.02930,1.00049,0.06104,-0.33569,-0.12207,17204
27.40,0.08740,-0.02881,1.00049,0.03052,-0.27466,-0.15259,17209
27.40,0.08643,-0.02783,1.00000,0.00000,-0.33569,-0.12207,17215
27.40,0.08643,-0.02783,1.00000,0.06104,-0.30518,-0.15259,17221
27.41,0.08594,-0.02686,1.00000,0.03052,-0.24414,-0.09155,17226
27.41,0.08594,-0.02686,1.00000,0.00000,-0.24414,-0.12207,17232
27.44,0.08594,-0.02686,0.99902,0.12207,-0.33569,-0.09155,17237
27.44,0.08594,-0.02686,0.99902,0.03052,-0.27466,-0.15259,17243
27.42,0.08594,-0.02881,0.99756,-0.03052,-0.24414,-0.15259,17248
27.40,0.08594,-0.02881,0.99756,0.09155,-0.27466,-0.06104,17254
27.40,0.08643,-0.02979,0.99805,0.06104,-0.24414,-0.12207,17259
27.41,0.08643,-0.02979,1.00000,0.15259,-0.24414,-0.09155,17265
27.41,0.08643,-0.02979,1.00000,0.12207,-0.39673,-0.03052,17271
27.43,0.08545,-0.02881,1.00049,0.06104,-0.27466,0.03052,17276
27.43,0.08545,-0.02881,1.00049,0.00000,-0.15259,-0.12207,17282
27.42,0.08545,-0.02783,1.00000,0.06104,-0.15259,-0.03052,17287
27.42,0.08545,-0.02783,1.00000,0.12207,-0.27466,0.00000,17293
27.42,0.08691,-0.02734,1.00049,0.09155,-0.33569,0.00000,17298
27.44,0.08691,-0.02734,1.00049,0.09155,-0.24414,0.03052,17304
27.44,0.08740,-0.02686,1.00098,0.12207,-0.30518,0.00000,17309
27.45,0.08691,-0.02734,1.00049,-0.03052,-0.30518,-0.18311,17315
27.45,0.08691,-0.02734,1.00049,0.09155,-0.27466,-0.09155,17320
27.42,0.08691,-0.02832,0.99951,0.06104,-0.33569,0.03052,17326
27.42,0.08691,-0.02832,0.99951,-0.03052,-0.27466,-0.03052,17331
27.44,0.08691,-0.02930,0.99902,0.00000,-0.36621,-0.15259,17337
27.44,0.08691,-0.02930,0.99902,-0.03052,-0.30518,-0.03052,17342
27.43,0.08594,-0.02979,0.99854,0.06104,-0.27466,-0.09155,17348
27.44,0.08594,-0.02979,0.99854,0.12207,-0.15259,-0.12207,17354
27.44,0.08545,-0.03027,0.99854,0.03052,-0.21362,-0.03052,17359
27.42,0.08545,-0.02979,0.99854,0.09155,-0.33569,-0.03052,17365
27.42,0.08545,-0.02979,0.99854,0.00000,-0.30518,-0.06104,17370
27.39,0.08594,-0.02930,0.99902,0.03052,-0.27466,-0.06104,17376
27.39,0.08594,-0.02930,0.99902,0.06104,-0.30518,-0.03052,17381
27.43,0.08594,-0.02881,0.99951,-0.03052,-0.15259,-0.12207,17387
27.42,0.08594,-0.02881,0.99951,0.12207,-0.30518,-0.03052,17393
27.42,0.08594,-0.02832,1.00098,0.12207,-0.30518,-0.15259,17398
27.39,0.08594,-0.02832,1.00098,0.03052,-0.30518,-0.15259,17404
27.39,0.08594,-0.02832,1.00195,0.06104,-0.36621,-0.09155,17409
27.47,0.08594,-0.02783,1.00195,0.00000,-0.21362,-0.03052,17415
27.47,0.08594,-0.02783,1.00195,0.00000,-0.18311,-0.03052,17420
27.39,0.08594,-0.02832,1.00098,0.12207,-0.24414,-0.06104,17426
27.39,0.08594,-0.02832,1.00098,0.06104,-0.33569,-0.15259,17431
27.44,0.08643,-0.02930,1.00049,0.06104,-0.27466,0.06104,17437
27.38,0.08643,-0.02930,1.00049,0.12207,-0.24414,-0.03052,17442
27.38,0.08643,-0.03027,0.99756,0.15259,-0.24414,-0.06104,17448
27.44,0.08643,-0.03027,0.99756,0.18311,-0.33569,-0.12207,17454
27.44,0.08594,-0.02979,0.99414,0.15259,-0.39673,-0.09155,17459
27.43,0.08789,-0.02588,0.99805,0.06104,-0.27466,0.00000,17465
27.43,0.08789,-0.02588,0.99805,-0.21362,-0.18311,0.00000,17470
27.38,0.08984,-0.02344,1.00391,-0.33569,-0.09155,-0.09155,17476
27.38,0.08984,-0.02344,1.00391,-0.03052,-0.27466,-0.18311,17481
27.44,0.08643,-0.02588,1.00342,0.09155,-0.27466,-0.27466,17487
27.41,0.08643,-0.02588,1.00342,0.24414,-0.39673,-0.21362,17492
27.41,0.08545,-0.02979,1.00293,0.24414,-0.30518,-0.15259,17498
27.43,0.08789,-0.03027,1.00537,-0.12207,-0.21362,0.03052,17504
27.43,0.08789,-0.03027,1.00537,-0.21362,-0.21362,0.00000,17509
27.45,0.08789,-0.02930,1.00635,-0.06104,-0.27466,0.00000,17515
27.45,0.08789,-0.02930,1.00635,0.09155,-0.45776,-0.09155,17520
27.45,0.08545,-0.02734,1.00293,0.15259,-0.33569,-0.09155,17526
27.45,0.08545,-0.02734,1.00293,0.15259,-0.21362,-0.09155,17531
27.41,0.08496,-0.02686,0.99854,0.03052,-0.21362,0.03052,17537
27.40,0.08496,-0.02686,0.99854,-0.12207,-0.15259,-0.12207,17542
27.40,0.08594,-0.02734,0.99609,-0.06104,-0.27466,-0.06104,17548
27.38,0.08691,-0.02783,0.99609,0.09155,-0.33569,-0.09155,17554
27.38,0.08691,-0.02783,0.99609,0.06104,-0.27466,-0.09155,17559
27.42,0.08643,-0.02832,0.99512,-0.06104,-0.24414,-0.12207,17565
27.42,0.08643,-0.02832,0.99512,0.03052,-0.33569,-0.03052,17570
27.38,0.08545,-0.02979,0.99268,-0.06104,-0.27466,0.00000,17576
27.42,0.08545,-0.02979,0.99268,0.21362,-0.30518,-0.09155,17581
27.42,0.08496,-0.03027,0.99414,0.18311,-0.39673,-0.15259,17587
27.42,0.08496,-0.03027,0.99414,0.12207,-0.33569,-0.15259,17593
27.42,0.08594,-0.02832,0.99805,-0.06104,-0.15259,-0.06104,17598
27.42,0.08594,-0.02686,1.00195,-0.18311,-0.24414,-0.06104,17604
27.42,0.08594,-0.02686,1.00195,-0.03052,-0.24414,-0.15259,17609
27.43,0.08496,-0.02881,1.00391,0.09155,-0.33569,-0.12207,17615
27.43,0.08496,-0.02881,1.00391,0.21362,-0.15259,-0.12207,17621
27.42,0.08496,-0.02979,1.00439,0.21362,-0.12207,-0.03052,17626
27.42,0.08496,-0.02979,1.00439,0.03052,-0.27466,-0.03052,17632
27.42,0.08643,-0.02832,1.00391,-0.15259,-0.15259,-0.03052,17637
27.41,0.08594,-0.02686,1.00244,-0.12207,-0.36621,-0.03052,17643
27.41,0.08594,-0.02686,1.00244,0.09155,-0.36621,0.03052,17649
27.39,0.08545,-0.02686,1.00098,0.12207,-0.30518,-0.15259,17654
27.39,0.08545,-0.02686,1.00098,0.12207,-0.24414,-0.12207,17660
27.40,0.08594,-0.02637,0.99854,0.03052,-0.36621,0.03052,17665
27.40,0.08594,-0.02637,0.99854,-0.15259,-0.33569,-0.09155,17671
27.43,0.08643,-0.02637,0.99609,0.00000,-0.27466,-0.18311,17676
27.44,0.08643,-0.02637,0.99609,0.03052,-0.24414,-0.06104,17682
27.44,0.08740,-0.02734,0.99609,0.15259,-0.21362,-0.09155,17687
27.43,0.08740,-0.02832,0.99609,-0.03052,-0.27466,-0.06104,17693
27.43,0.08740,-0.02832,0.99609,-0.12207,-0.33569,-0.09155,17699
27.39,0.08789,-0.02930,0.99707,-0.06104,-0.30518,-0.15259,17704
27.39,0.08789,-0.02930,0.99707,0.09155,-0.27466,-0.03052,17710
27.43,0.08740,-0.02930,1.00000,0.12207,-0.12207,-0.12207,17715
27.41,0.08740,-0.02930,1.00000,0.03052,-0.24414,-0.12207,17721
27.41,0.08643,-0.02832,1.00146,0.00000,-0.27466,-0.06104,17726
27.40,0.08643,-0.02832,1.00146,-0.15259,-0.30518,-0.03052,17732
27.40,0.08643,-0.02783,1.00195,0.06104,-0.30518,-0.12207,17738
27.45,0.08691,-0.02881,1.00244,0.03052,-0.27466,-0.06104,17743
27.45,0.08691,-0.02881,1.00244,0.09155,-0.27466,-0.03052,17749
27.38,0.08691,-0.02881,1.00244,0.06104,-0.24414,-0.09155,17754
27.38,0.08691,-0.02881,1.00244,0.06104,-0.24414,0.00000,17760
27.43,0.08740,-0.02783,1.00146,0.03052,-0.27466,-0.12207,17765
27.42,0.08740,-0.02783,1.00146,0.06104,-0.27466,-0.06104,17771
27.42,0.08643,-0.02588,0.99854,0.15259,-0.33569,0.03052,17776
27.42,0.08643,-0.02588,0.99854,0.18311,-0.27466,-0.03052,17782
27.42,0.08496,-0.02539,0.99609,0.09155,-0.36621,0.00000,17787
27.43,0.08545,-0.02637,0.99512,0.06104,-0.36621,0.03052,17793
27.43,0.08545,-0.02637,0.99512,-0.03052,-0.21362,-0.15259,17798
27.38,0.08643,-0.02637,0.99512,-0.06104,-0.27466,-0.21362,17804
27.38,0.08643,-0.02637,0.99512,0.06104,-0.24414,-0.03052,17810
27.43,0.08740,-0.02734,0.99609,0.09155,-0.24414,0.00000,17815
27.41,0.08740,-0.02734,0.99609,0.18311,-0.27466,-0.09155,17821
27.41,0.08789,-0.02930,0.99805,0.03052,-0.27466,-0.09155,17826
27.39,0.08789,-0.02930,0.99805,0.03052,-0.30518,-0.06104,17832
27.39,0.08740,-0.03076,0.99951,0.09155,-0.48828,-0.06104,17837
27.40,0.08594,-0.02979,1.00098,0.06104,-0.33569,-0.09155,17843
27.40,0.08594,-0.02979,1.00098,0.06104,-0.15259,-0.21362,17848
27.40,0.08447,-0.02832,1.00195,0.06104,-0.24414,-0.06104,17854
27.40,0.08447,-0.02832,1.00195,0.06104,-0.30518,0.00000,17860
27.44,0.08545,-0.02734,1.00244,0.03052,-0.30518,-0.03052,17865
27.41,0.08545,-0.02734,1.00244,0.00000,-0.30518,-0.12207,17871
27.41,0.08643,-0.02783,1.00146,0.03052,-0.27466,-0.03052,17876
27.41,0.08643,-0.02783,1.00146,0.09155,-0.30518,-0.18311,17882
27.41,0.08594,-0.02930,0.99902,-0.03052,-0.30518,-0.09155,17887
27.41,0.08594,-0.02881,0.99707,0.06104,-0.27466,-0.09155,17893
27.41,0.08594,-0.02881,0.99707,0.00000,-0.24414,-0.06104,17898
27.37,0.08643,-0.02734,0.99658,0.00000,-0.21362,0.00000,17904
27.37,0.08643,-0.02734,0.99658,0.03052,-0.21362,0.00000,17909
27.42,0.08594,-0.02734,0.99658,0.15259,-0.27466,-0.12207,17915
27.41,0.08594,-0.02734,0.99658,0.03052,-0.33569,-0.12207,17920
27.41,0.08447,-0.02783,0.99707,0.09155,-0.33569,-0.06104,17926
27.43,0.08447,-0.02783,0.99707,0.03052,-0.21362,-0.03052,17932
27.43,0.08545,-0.02832,0.99902,0.06104,-0.30518,-0.03052,17937
27.42,0.08643,-0.02832,1.00146,-0.03052,-0.27466,0.03052,17943
27.42,0.08643,-0.02832,1.00146,0.03052,-0.30518,-0.09155,17948
27.39,0.08691,-0.02832,1.00293,0.06104,-0.24414,-0.06104,17954
27.39,0.08691,-0.02832,1.00293,0.03052,-0.24414,-0.03052,17959
27.42,0.08691,-0.02783,1.00342,-0.03052,-0.33569,-0.12207,17965
27.43,0.08691,-0.02783,1.00342,0.00000,-0.30518,-0.12207,17970
27.43,0.08594,-0.02783,1.00195,0.09155,-0.36621,-0.12207,17976
27.41,0.08594,-0.02832,1.00000,0.00000,-0.45776,-0.12207,17982
27.41,0.08594,-0.02832,1.00000,0.06104,-0.30518,-0.03052,17987
27.40,0.08643,-0.02930,0.99902,0.00000,-0.21362,-0.12207,17993
27.40,0.08643,-0.02930,0.99902,0.03052,-0.36621,-0.12207,17998
27.42,0.08643,-0.02881,0.99854,0.03052,-0.30518,-0.09155,18004
27.42,0.08643,-0.02881,0.99854,0.03052,-0.30518,-0.12207,18009
27.41,0.08643,-0.02832,0.99805,0.06104,-0.33569,-0.03052,18015
27.42,0.08643,-0.02832,0.99805,0.06104,-0.33569,-0.06104,18020
27.42,0.08691,-0.02734,0.99805,0.09155,-0.30518,0.03052,18026
27.43,0.08643,-0.02686,0.99902,0.12207,-0.24414,-0.18311,18031
27.43,0.08643,-0.02686,0.99902,0.12207,-0.24414,-0.18311,18037
27.43,0.08545,-0.02686,1.00049,-0.06104,-0.39673,-0.06104,18043
27.43,0.08545,-0.02686,1.00049,0.09155,-0.06104,-0.06104,18048
27.43,0.08643,-0.02734,1.00244,0.06104,-0.24414,-0.06104,18054
27.43,0.08643,-0.02734,1.00244,-0.09155,-0.27466,0.03052,18059
27.43,0.08643,-0.02783,1.00195,0.00000,-0.24414,-0.09155,18065
27.42,0.08643,-0.02783,1.00195,0.18311,-0.45776,0.03052,18070
27.42,0.08643,-0.02881,1.00146,0.12207,-0.36621,-0.15259,18076
27.43,0.08789,-0.02930,1.00146,-0.09155,-0.27466,-0.18311,18081
27.43,0.08789,-0.02930,1.00146,-0.06104,-0.15259,-0.09155,18087
27.41,0.08740,-0.02783,1.00049,0.03052,-0.45776,-0.06104,18093
27.41,0.08740,-0.02783,1.00049,0.06104,-0.15259,0.03052,18098
27.42,0.08496,-0.02637,0.99805,0.03052,-0.39673,0.00000,18104
27.45,0.08496,-0.02637,0.99805,0.00000,-0.12207,-0.03052,18109
27.45,0.08447,-0.02686,0.99609,0.00000,-0.30518,-0.12207,18115
27.43,0.08447,-0.02686,0.99609,0.12207,-0.30518,-0.03052,18120
27.43,0.08594,-0.02734,0.99658,-0.06104,-0.24414,-0.15259,18126
27.43,0.08691,-0.02734,0.99756,0.06104,-0.27466,-0.06104,18131
27.43,0.08691,-0.02734,0.99756,0.15259,-0.27466,-0.03052,18137
27.43,0.08740,-0.02783,0.99854,0.09155,-0.24414,-0.09155,18143
27.43,0.08740,-0.02783,0.99854,0.03052,-0.18311,-0.03052,18148
27.43,0.08789,-0.02783,1.00000,-0.09155,-0.30518,-0.06104,18154
27.41,0.08789,-0.02783,1.00000,-0.06104,-0.09155,0.03052,18159
27.41,0.08789,-0.02686,1.00146,0.03052,-0.36621,0.00000,18165
27.41,0.08789,-0.02686,1.00146,0.03052,-0.24414,-0.09155,18170
27.41,0.08740,-0.02734,1.00195,0.12207,-0.36621,-0.12207,18176
27.44,0.08594,-0.02881,1.00195,0.12207,-0.27466,-0.06104,18181
27.44,0.08594,-0.02881,1.00195,-0.06104,-0.39673,-0.12207,18187
27.44,0.08594,-0.02979,1.00195,0.09155,-0.18311,-0.12207,18193
27.44,0.08594,-0.02979,1.00195,-0.06104,-0.21362,0.00000,18198
27.43,0.08643,-0.02930,1.00195,0.03052,-0.39673,-0.06104,18204
27.41,0.08643,-0.02930,1.00195,0.03052,-0.18311,-0.06104,18209
27.41,0.08691,-0.02783,1.00098,0.18311,-0.27466,-0.03052,18215
27.45,0.08594,-0.02588,0.99854,0.03052,-0.24414,0.00000,18220
27.45,0.08594,-0.02588,0.99854,0.03052,-0.42725,-0.06104,18226
27.46,0.08545,-0.02490,0.99658,0.06104,-0.21362,-0.06104,18231
27.46,0.08545,-0.02490,0.99658,0.06104,-0.24414,-0.06104,18237
27.44,0.08594,-0.02539,0.99658,0.03052,-0.33569,0.03052,18243
27.44,0.08594,-0.02539,0.99658,-0.03052,-0.30518,-0.09155,18248
27.43,0.08643,-0.02686,0.99854,0.03052,-0.15259,-0.06104,18254
27.42,0.08643,-0.02686,0.99854,0.00000,-0.33569,0.03052,18259
27.42,0.08691,-0.02881,1.00098,0.00000,-0.18311,-0.03052,18265
27.43,0.08594,-0.02979,1.00195,0.03052,-0.24414,-0.15259,18270
27.43,0.08594,-0.02979,1.00195,0.12207,-0.33569,-0.03052,18276
27.41,0.08496,-0.02979,1.00244,0.00000,-0.30518,-0.06104,18281
27.41,0.08496,-0.02979,1.00244,-0.06104,-0.48828,-0.03052,18287
27.45,0.08545,-0.02930,1.00244,0.09155,-0.18311,-0.03052,18292
27.45,0.08545,-0.02930,1.00244,0.00000,-0.30518,-0.09155,18298
27.43,0.08643,-0.02881,1.00049,0.09155,-0.21362,-0.06104,18304
27.41,0.08643,-0.02881,1.00049,0.06104,-0.33569,0.03052,18309
27.41,0.08740,-0.02832,0.99854,0.15259,-0.18311,0.06104,18315
27.43,0.08691,-0.02783,0.99658,0.06104,-0.39673,-0.12207,18320
27.43,0.08691,-0.02783,0.99658,0.06104,-0.30518,-0.27466,18326
27.42,0.08643,-0.02783,0.99609,-0.06104,-0.27466,-0.06104,18331
27.42,0.08643,-0.02783,0.99609,0.12207,-0.15259,0.00000,18337
27.40,0.08643,-0.02832,0.99658,0.06104,-0.12207,-0.15259,18342
27.40,0.08643,-0.02832,0.99658,0.03052,-0.21362,-0.09155,18348
27.40,0.08691,-0.02783,0.99805,0.06104,-0.39673,-0.12207,18353
27.40,0.08691,-0.02783,0.99805,0.12207,-0.24414,-0.06104,18359
27.40,0.08691,-0.02783,1.00000,0.09155,-0.33569,-0.09155,18364
27.42,0.08643,-0.02832,1.00146,0.06104,-0.21362,-0.15259,18370
27.42,0.08643,-0.02832,1.00146,0.12207,-0.27466,-0.12207,18376
27.44,0.08691,-0.02930,1.00293,0.09155,-0.21362,-0.03052,18381
27.44,0.08691,-0.02930,1.00293,0.12207,-0.27466,-0.09155,18387
27.45,0.08691,-0.02979,1.00293,0.21362,-0.33569,-0.09155,18392
27.44,0.08691,-0.02979,1.00293,0.15259,-0.12207,-0.03052,18398
27.44,0.08691,-0.02881,1.00244,0.00000,-0.24414,-0.12207,18403
27.43,0.08691,-0.02881,1.00244,0.03052,-0.33569,-0.12207,18409
27.43,0.08691,-0.02783,1.00146,0.12207,-0.36621,-0.18311,18414
27.43,0.08643,-0.02783,0.99951,0.18311,-0.15259,-0.09155,18420
27.43,0.08643,-0.02783,0.99951,0.12207,-0.33569,-0.06104,18426
27.43,0.08594,-0.02783,0.99756,0.06104,-0.36621,-0.12207,18431
27.43,0.08594,-0.02783,0.99756,0.03052,-0.18311,-0.21362,18437
27.44,0.08643,-0.02881,0.99707,0.12207,-0.30518,0.00000,18442
27.45,0.08643,-0.02881,0.99707,0.12207,-0.33569,0.00000,18448
27.45,0.08740,-0.02881,0.99707,0.03052,-0.21362,-0.12207,18453
27.38,0.08740,-0.02881,0.99707,-0.03052,-0.27466,-0.15259,18459
27.38,0.08740,-0.02881,0.99756,0.06104,-0.27466,-0.03052,18464
27.40,0.08691,-0.02832,0.99951,0.06104,-0.33569,-0.09155,18470
27.40,0.08691,-0.02832,0.99951,0.06104,-0.27466,-0.18311,18475
27.43,0.08594,-0.02881,1.00146,0.03052,-0.24414,-0.18311,18481
27.43,0.08594,-0.02881,1.00146,-0.03052,-0.42725,-0.12207,18487
27.43,0.08594,-0.02979,1.00244,-0.06104,-0.33569,-0.12207,18492
27.45,0.08594,-0.02979,1.00244,0.03052,-0.33569,-0.12207,18498
27.45,0.08643,-0.02979,1.00244,0.00000,-0.27466,-0.09155,18503
27.43,0.08691,-0.02832,1.00195,0.09155,-0.24414,-0.06104,18509
27.43,0.08691,-0.02832,1.00195,-0.03052,-0.36621,-0.12207,18514
27.40,0.08691,-0.02686,1.00146,-0.06104,-0.15259,-0.09155,18520
27.40,0.08691,-0.02686,1.00146,0.00000,-0.33569,-0.09155,18526
27.44,0.08740,-0.02637,1.00049,-0.03052,-0.27466,0.03052,18531
27.44,0.08740,-0.02637,1.00049,0.12207,-0.30518,-0.09155,18537
27.45,0.08691,-0.02588,0.99902,0.18311,-0.33569,-0.06104,18542
27.46,0.08691,-0.02588,0.99902,0.09155,-0.36621,0.00000,18548
27.46,0.08691,-0.02637,0.99756,0.00000,-0.18311,-0.15259,18553
27.45,0.08740,-0.02783,0.99707,0.09155,-0.36621,-0.06104,18559
27.45,0.08740,-0.02783,0.99707,0.03052,-0.21362,-0.09155,18565
27.44,0.08691,-0.02881,0.99805,0.09155,-0.27466,-0.06104,18570
27.44,0.08691,-0.02881,0.99805,0.00000,-0.27466,-0.06104,18576
27.45,0.08545,-0.02881,0.99902,0.09155,-0.30518,0.00000,18581
27.45,0.08545,-0.02881,0.99902,0.09155,-0.30518,0.00000,18587
27.42,0.08545,-0.02783,1.00000,0.06104,-0.36621,-0.09155,18592
27.41,0.08545,-0.02783,1.00000,0.09155,-0.30518,-0.09155,18598
27.41,0.08594,-0.02783,1.00049,0.12207,-0.33569,-0.12207,18603
27.46,0.08643,-0.02783,1.00146,0.00000,-0.36621,-0.15259,18609
27.46,0.08643,-0.02783,1.00146,-0.06104,-0.27466,-0.09155,18614
27.40,0.08643,-0.02783,1.00195,0.09155,-0.30518,-0.09155,18620
27.40,0.08643,-0.02783,1.00195,0.12207,-0.24414,-0.09155,18626
27.41,0.08691,-0.02832,1.00146,0.09155,-0.21362,0.03052,18631
27.41,0.08691,-0.02832,1.00146,0.15259,-0.30518,0.06104,18637
27.42,0.08643,-0.02881,0.99951,0.09155,-0.45776,0.06104,18642
27.43,0.08643,-0.02881,0.99951,0.00000,-0.24414,-0.06104,18647
27.43,0.08594,-0.02881,0.99805,0.06104,-0.24414,-0.15259,18653
27.44,0.08594,-0.02783,0.99756,0.09155,-0.36621,-0.06104,18659
27.44,0.08594,-0.02783,0.99756,0.12207,-0.30518,0.00000,18664
27.42,0.08545,-0.02734,0.99805,0.06104,-0.36621,-0.09155,18670
27.42,0.08545,-0.02734,0.99805,0.06104,-0.27466,-0.06104,18675
27.42,0.08594,-0.02783,0.99854,0.00000,-0.18311,0.00000,18681
27.42,0.08594,-0.02783,0.99854,0.12207,-0.27466,-0.03052,18686
27.46,0.08691,-0.02881,0.99951,0.09155,-0.33569,-0.12207,18692
27.40,0.08691,-0.02881,0.99951,-0.03052,-0.21362,-0.09155,18697
27.40,0.08789,-0.02930,1.00049,-0.03052,-0.33569,-0.09155,18703
27.42,0.08691,-0.02832,1.00146,0.03052,-0.33569,-0.09155,18709
27.42,0.08691,-0.02832,1.00146,0.06104,-0.33569,0.00000,18714
27.42,0.08594,-0.02783,1.00293,0.15259,-0.36621,-0.09155,18720
27.42,0.08594,-0.02783,1.00293,0.03052,-0.33569,-0.15259,18725
27.42,0.08545,-0.02783,1.00244,0.00000,-0.24414,-0.12207,18731
27.43,0.08545,-0.02783,1.00244,0.06104,-0.24414,-0.03052,18736
27.43,0.08545,-0.02832,1.00146,0.09155,-0.36621,-0.03052,18742
27.42,0.08545,-0.02832,1.00146,0.03052,-0.30518,0.00000,18747
27.42,0.08594,-0.02832,1.00098,0.03052,-0.27466,-0.12207,18753
27.46,0.08643,-0.02881,1.00000,-0.03052,-0.12207,-0.06104,18758
27.46,0.08643,-0.02881,1.00000,0.09155,-0.27466,-0.06104,18764
27.43,0.08643,-0.02930,0.99902,0.03052,-0.21362,0.00000,18770
27.43,0.08643,-0.02930,0.99902,0.03052,-0.24414,-0.06104,18775
27.42,0.08594,-0.02881,0.99902,0.03052,-0.24414,-0.09155,18781
27.41,0.08594,-0.02881,0.99902,0.00000,-0.12207,-0.09155,18786
27.41,0.08594,-0.02832,0.99902,-0.03052,-0.33569,-0.06104,18792
27.45,0.08594,-0.02832,0.99902,-0.09155,-0.33569,-0.06104,18797
27.45,0.08594,-0.02832,0.99902,0.12207,-0.12207,-0.09155,18803
27.42,0.08594,-0.02881,0.99951,0.03052,-0.24414,-0.15259,18808
27.42,0.08594,-0.02881,0.99951,0.03052,-0.27466,-0.09155,18814
27.45,0.08594,-0.02930,1.00098,0.03052,-0.24414,-0.06104,18820
27.45,0.08594,-0.02930,1.00098,-0.03052,-0.27466,-0.12207,18825
27.43,0.08594,-0.02881,1.00098,-0.09155,-0.33569,-0.06104,18831
27.48,0.08594,-0.02881,1.00098,0.09155,-0.24414,-0.09155,18836
27.48,0.08594,-0.02832,1.00098,0.12207,-0.15259,-0.18311,18842
27.47,0.08643,-0.02832,1.00146,0.03052,-0.24414,-0.06104,18848
27.47,0.08643,-0.02832,1.00146,-0.03052,-0.27466,-0.03052,18853
27.44,0.08691,-0.02930,1.00098,-0.03052,-0.21362,-0.06104,18859
27.44,0.08691,-0.02930,1.00098,0.06104,-0.24414,-0.09155,18864
27.42,0.08691,-0.02979,1.00049,0.09155,-0.18311,-0.06104,18870
27.42,0.08691,-0.02979,1.00049,0.03052,-0.33569,-0.12207,18875
27.42,0.08594,-0.02930,0.99902,0.09155,-0.33569,-0.06104,18881
27.44,0.08594,-0.02930,0.99902,0.12207,-0.30518,-0.06104,18887
27.44,0.08545,-0.02783,0.99902,0.06104,-0.33569,0.03052,18892
27.41,0.08545,-0.02734,0.99951,0.03052,-0.24414,-0.12207,18898
27.41,0.08545,-0.02734,0.99951,0.09155,-0.21362,-0.09155,18903
27.43,0.08545,-0.02783,0.99951,0.06104,-0.33569,-0.06104,18909
27.43,0.08545,-0.02783,0.99951,0.09155,-0.27466,-0.09155,18914
27.46,0.08643,-0.02783,0.99951,-0.03052,-0.33569,-0.12207,18920
27.43,0.08643,-0.02783,0.99951,0.06104,-0.27466,-0.06104,18925
27.43,0.08691,-0.02832,1.00000,0.06104,-0.21362,-0.09155,18931
27.43,0.08691,-0.02832,1.00000,0.06104,-0.30518,-0.15259,18937
27.43,0.08691,-0.02881,1.00146,0.00000,-0.33569,-0.09155,18942
27.45,0.08740,-0.02930,1.00244,0.03052,-0.27466,-0.06104,18948
27.45,0.08740,-0.02930,1.00244,0.12207,-0.24414,-0.06104,18953
27.42,0.08740,-0.02930,1.00195,0.09155,-0.27466,-0.18311,18959
27.42,0.08740,-0.02930,1.00195,0.12207,-0.18311,-0.12207,18964
27.41,0.08740,-0.02832,1.00098,0.15259,-0.27466,-0.18311,18970
27.43,0.08740,-0.02832,1.00098,0.06104,-0.33569,-0.09155,18975
27.43,0.08691,-0.02783,1.00000,0.00000,-0.30518,-0.09155,18981
27.44,0.08691,-0.02783,1.00000,0.06104,-0.12207,0.03052,18986
27.44,0.08643,-0.02783,0.99902,0.06104,-0.18311,-0.12207,18992
27.45,0.08691,-0.02881,0.99805,0.12207,-0.30518,-0.03052,18998
27.45,0.08691,-0.02881,0.99805,0.00000,-0.27466,-0.03052,19003
27.45,0.08643,-0.02881,0.99756,-0.03052,-0.21362,0.00000,19009
27.45,0.08643,-0.02881,0.99756,-0.03052,-0.30518,0.00000,19014
27.44,0.08643,-0.02783,0.99805,-0.03052,-0.24414,-0.12207,19020
27.44,0.08643,-0.02783,0.99805,-0.03052,-0.24414,-0.09155,19025
27.44,0.08691,-0.02783,1.00000,0.00000,-0.21362,-0.12207,19031
27.45,0.08594,-0.02783,1.00146,0.03052,-0.15259,-0.09155,19037
27.45,0.08594,-0.02783,1.00146,0.06104,-0.24414,-0.06104,19042
27.43,0.08643,-0.02832,1.00244,0.09155,-0.39673,0.00000,19048
27.43,0.08643,-0.02832,1.00244,0.03052,-0.24414,-0.09155,19053
27.42,0.08740,-0.02930,1.00244,0.06104,-0.36621,-0.06104,19059
27.42,0.08740,-0.02930,1.00244,0.06104,-0.30518,-0.09155,19064
27.44,0.08691,-0.02979,1.00146,0.06104,-0.21362,-0.12207,19070
27.46,0.08691,-0.02979,1.00146,0.03052,-0.27466,-0.09155,19075
27.46,0.08545,-0.02930,1.00000,0.03052,-0.36621,0.00000,19081
27.41,0.08545,-0.02832,0.99902,0.03052,-0.18311,-0.06104,19086
27.41,0.08545,-0.02832,0.99902,0.03052,-0.24414,-0.06104,19092
27.40,0.08594,-0.02783,0.99902,0.09155,-0.18311,-0.12207,19097
27.40,0.08594,-0.02783,0.99902,0.15259,-0.39673,0.00000,19103
27.45,0.08740,-0.02783,0.99951,0.12207,-0.30518,-0.06104,19108
27.45,0.08740,-0.02783,0.99951,0.15259,-0.24414,-0.06104,19114
27.42,0.08838,-0.02832,1.00000,0.03052,-0.24414,-0.06104,19120
27.42,0.08838,-0.02832,1.00000,-0.03052,-0.27466,-0.18311,19125
27.42,0.08740,-0.02881,1.00098,-0.06104,-0.30518,-0.09155,19131
27.45,0.08643,-0.02881,1.00146,0.06104,-0.48828,-0.18311,19136
27.45,0.08643,-0.02881,1.00146,0.12207,-0.39673,-0.06104,19142
27.42,0.08643,-0.02881,1.00098,0.06104,-0.18311,-0.15259,19148
27.42,0.08643,-0.02881,1.00098,0.00000,-0.30518,-0.12207,19153
27.42,0.08643,-0.02832,1.00146,0.12207,-0.39673,-0.12207,19159
27.42,0.08643,-0.02832,1.00146,0.12207,-0.30518,-0.03052,19164
27.46,0.08691,-0.02832,1.00146,0.12207,-0.18311,-0.03052,19170
27.45,0.08691,-0.02832,1.00146,0.15259,-0.21362,-0.15259,19175
27.45,0.08691,-0.02881,1.00098,0.03052,-0.36621,-0.06104,19181
27.41,0.08740,-0.02881,1.00000,-0.06104,-0.24414,-0.06104,19186
27.41,0.08740,-0.02881,1.00000,0.09155,-0.27466,0.00000,19192
27.46,0.08789,-0.02783,0.99951,0.12207,-0.27466,0.03052,19197
27.46,0.08789,-0.02783,0.99951,0.21362,-0.30518,-0.12207,19203
27.44,0.08789,-0.02686,0.99902,0.03052,-0.27466,-0.15259,19208
27.46,0.08789,-0.02686,0.99902,-0.03052,-0.33569,-0.09155,19214
27.46,0.08691,-0.02588,0.99902,0.12207,-0.30518,-0.15259,19220
27.42,0.08691,-0.02588,0.99902,0.12207,-0.12207,-0.18311,19225
27.42,0.08594,-0.02637,0.99951,0.00000,-0.30518,-0.15259,19231
27.44,0.08594,-0.02832,1.00049,-0.03052,-0.15259,-0.18311,19236
27.44,0.08594,-0.02832,1.00049,-0.03052,-0.24414,-0.09155,19242
27.45,0.08691,-0.03027,1.00146,0.03052,-0.27466,-0.09155,19248
27.45,0.08691,-0.03027,1.00146,0.09155,-0.33569,0.03052,19253
27.43,0.08691,-0.03125,1.00146,0.00000,-0.27466,-0.06104,19259
27.44,0.08691,-0.03125,1.00146,0.12207,-0.24414,-0.06104,19264
27.44,0.08545,-0.03125,1.00049,0.12207,-0.24414,-0.03052,19270
27.42,0.08545,-0.03125,1.00049,0.06104,-0.21362,-0.03052,19275
27.42,0.08594,-0.02979,1.00049,0.09155,-0.21362,-0.03052,19281
27.45,0.08643,-0.02783,1.00000,0.06104,-0.18311,-0.09155,19286
27.45,0.08643,-0.02783,1.00000,-0.06104,-0.18311,-0.06104,19292
27.44,0.08691,-0.02734,1.00000,0.09155,-0.30518,-0.06104,19298
27.44,0.08691,-0.02734,1.00000,0.12207,-0.21362,-0.12207,19303
27.43,0.08643,-0.02734,1.00049,0.03052,-0.21362,-0.15259,19309
27.45,0.08643,-0.02734,1.00049,-0.03052,-0.24414,-0.15259,19314
27.45,0.08594,-0.02686,1.00000,0.03052,-0.27466,-0.06104,19320
27.45,0.08594,-0.02686,0.99902,-0.03052,-0.24414,-0.06104,19325
27.45,0.08594,-0.02686,0.99902,0.06104,-0.24414,-0.09155,19331
27.42,0.08545,-0.02734,0.99805,0.03052,-0.21362,0.00000,19337
27.42,0.08545,-0.02734,0.99805,0.00000,-0.18311,-0.12207,19342
27.46,0.08545,-0.02783,0.99805,0.06104,-0.24414,-0.09155,19348
27.46,0.08545,-0.02783,0.99805,0.09155,-0.30518,-0.12207,19353
27.45,0.08594,-0.02783,0.99951,0.12207,-0.33569,-0.12207,19359
27.42,0.08594,-0.02783,0.99951,0.00000,-0.27466,-0.09155,19364
27.42,0.08643,-0.02832,1.00049,-0.15259,-0.24414,-0.06104,19370
27.43,0.08643,-0.02881,1.00098,0.06104,-0.30518,-0.03052,19375
27.43,0.08643,-0.02881,1.00098,0.12207,-0.33569,-0.12207,19381
27.42,0.08691,-0.02930,1.00146,0.09155,-0.27466,-0.12207,19387
27.42,0.08691,-0.02930,1.00146,0.06104,-0.21362,-0.03052,19392
27.42,0.08740,-0.02979,1.00098,0.00000,-0.27466,-0.09155,19398
27.42,0.08740,-0.02979,1.00098,0.06104,-0.30518,-0.09155,19403
27.42,0.08740,-0.02979,1.00049,0.03052,-0.27466,-0.15259,19409
27.45,0.08740,-0.02979,1.00049,0.15259,-0.24414,-0.09155,19414
27.45,0.08789,-0.02832,1.00098,-0.03052,-0.21362,-0.03052,19420
27.41,0.08740,-0.02686,1.00098,0.00000,-0.27466,-0.09155,19426
27.41,0.08740,-0.02686,1.00098,0.03052,-0.30518,-0.12207,19431
27.44,0.08691,-0.02686,0.99951,0.12207,-0.15259,-0.15259,19437
27.44,0.08691,-0.02686,0.99951,-0.06104,-0.18311,-0.06104,19442
27.41,0.08691,-0.02734,0.99854,-0.03052,-0.27466,-0.06104,19448
27.42,0.08691,-0.02734,0.99854,0.00000,-0.30518,-0.03052,19454
27.42,0.08691,-0.02686,0.99951,0.06104,-0.30518,0.03052,19459
27.43,0.08691,-0.02686,0.99951,0.12207,-0.45776,-0.09155,19464
27.43,0.08643,-0.02686,1.00049,0.12207,-0.21362,-0.03052,19470
27.41,0.08594,-0.02783,1.00195,0.06104,-0.18311,-0.15259,19476
27.41,0.08594,-0.02783,1.00195,0.03052,-0.30518,-0.06104,19481
27.41,0.08594,-0.02832,1.00195,-0.03052,-0.39673,-0.03052,19487
27.41,0.08594,-0.02832,1.00195,0.00000,-0.27466,0.00000,19492
27.44,0.08691,-0.02881,1.00146,0.09155,-0.36621,-0.03052,19498
27.42,0.08691,-0.02881,1.00146,0.00000,-0.24414,-0.12207,19503
27.42,0.08789,-0.02832,1.00146,-0.09155,-0.33569,-0.15259,19509
27.41,0.08740,-0.02734,1.00049,0.06104,-0.24414,0.03052,19515
27.41,0.08740,-0.02734,1.00049,0.03052,-0.36621,-0.18311,19520
27.45,0.08691,-0.02686,0.99805,0.06104,-0.33569,-0.06104,19526
27.45,0.08691,-0.02686,0.99805,0.00000,-0.15259,-0.03052,19531
27.42,0.08789,-0.02686,0.99805,0.06104,-0.21362,-0.09155,19537
27.42,0.08789,-0.02686,0.99805,0.06104,-0.42725,-0.06104,19542
27.45,0.08838,-0.02783,0.99902,0.00000,-0.24414,-0.09155,19548
27.44,0.08838,-0.02783,0.99902,0.12207,-0.15259,-0.06104,19553
27.44,0.08740,-0.02832,1.00000,0.06104,-0.24414,0.00000,19559
27.46,0.08643,-0.02832,1.00000,0.09155,-0.27466,-0.09155,19564
27.46,0.08643,-0.02832,1.00000,0.06104,-0.27466,0.03052,19570
27.43,0.08691,-0.02930,0.99951,0.09155,-0.30518,-0.03052,19575
27.43,0.08691,-0.02930,0.99951,-0.03052,-0.24414,-0.21362,19581
27.41,0.08691,-0.02930,0.99951,0.06104,-0.21362,-0.15259,19587
27.41,0.08691,-0.02930,0.99951,0.06104,-0.24414,-0.12207,19592
27.41,0.08643,-0.02832,1.00049,0.09155,-0.21362,-0.09155,19598
27.44,0.08643,-0.02832,1.00049,0.00000,-0.24414,-0.03052,19603
27.44,0.08643,-0.02783,1.00146,-0.06104,-0.27466,-0.09155,19609
27.41,0.08691,-0.02783,1.00098,0.00000,-0.27466,-0.06104,19614
27.41,0.08691,-0.02783,1.00098,0.03052,-0.18311,-0.09155,19620
27.44,0.08740,-0.02832,1.00098,0.03052,-0.21362,-0.12207,19626
27.44,0.08740,-0.02832,1.00098,0.06104,-0.33569,0.00000,19631
27.45,0.08740,-0.02930,1.00049,0.06104,-0.36621,-0.12207,19637
27.41,0.08740,-0.02930,1.00049,0.12207,-0.27466,-0.03052,19642
27.41,0.08740,-0.02930,1.00000,0.03052,-0.27466,-0.06104,19648
27.46,0.08740,-0.02930,1.00000,0.03052,-0.30518,-0.06104,19653
27.46,0.08740,-0.02881,0.99951,0.00000,-0.27466,-0.06104,19659
27.42,0.08643,-0.02783,0.99902,0.00000,-0.24414,-0.15259,19664
27.42,0.08643,-0.02783,0.99902,-0.09155,-0.33569,-0.12207,19670
27.45,0.08643,-0.02783,0.99902,0.09155,-0.24414,-0.06104,19675
27.45,0.08643,-0.02783,0.99902,0.06104,-0.24414,-0.06104,19681
27.45,0.08691,-0.02881,1.00049,0.03052,-0.30518,-0.12207,19687
27.47,0.08691,-0.02881,1.00049,0.09155,-0.24414,-0.12207,19692
27.47,0.08643,-0.02930,1.00098,0.03052,-0.18311,-0.12207,19698
27.42,0.08643,-0.02930,1.00098,0.00000,-0.33569,-0.15259,19703
27.42,0.08643,-0.02881,1.00146,0.12207,-0.33569,-0.03052,19709
27.45,0.08691,-0.02783,1.00146,0.12207,-0.30518,-0.15259,19714
27.45,0.08691,-0.02783,1.00146,0.09155,-0.36621,-0.09155,19720
27.42,0.08740,-0.02783,1.00146,0.09155,-0.27466,-0.03052,19725
27.42,0.08740,-0.02783,1.00146,0.03052,-0.33569,-0.15259,19731
27.41,0.08740,-0.02783,1.00098,0.06104,-0.30518,-0.09155,19737
27.45,0.08740,-0.02783,1.00098,0.09155,-0.21362,-0.06104,19742
27.45,0.08789,-0.02783,1.00000,0.09155,-0.30518,-0.12207,19748
27.43,0.08740,-0.02832,0.99951,-0.03052,-0.27466,-0.03052,19753
27.43,0.08740,-0.02832,0.99951,-0.06104,-0.24414,-0.09155,19759
27.44,0.08643,-0.02832,0.99902,0.06104,-0.33569,-0.03052,19764
27.44,0.08643,-0.02832,0.99902,0.06104,-0.33569,-0.03052,19770
27.44,0.08643,-0.02734,0.99854,0.03052,-0.36621,-0.03052,19776
27.44,0.08643,-0.02734,0.99854,0.03052,-0.30518,-0.06104,19781
27.42,0.08691,-0.02686,0.99854,0.03052,-0.27466,-0.06104,19787
27.45,0.08691,-0.02686,0.99854,0.06104,-0.36621,-0.09155,19792
27.45,0.08691,-0.02783,0.99902,0.03052,-0.24414,-0.09155,19798
27.47,0.08740,-0.02881,1.00000,0.00000,-0.24414,-0.09155,19803
27.47,0.08740,-0.02881,1.00000,0.03052,-0.24414,-0.12207,19809
27.41,0.08740,-0.02881,1.00098,0.06104,-0.36621,0.03052,19814
27.41,0.08740,-0.02881,1.00098,0.03052,-0.36621,0.00000,19820
27.44,0.08740,-0.02930,1.00146,-0.03052,-0.30518,-0.09155,19825
27.44,0.08740,-0.02930,1.00146,0.18311,-0.21362,-0.06104,19831
27.40,0.08643,-0.02930,1.00049,0.06104,-0.30518,-0.06104,19837
27.46,0.08643,-0.02930,1.00049,0.03052,-0.39673,-0.03052,19842
27.46,0.08594,-0.02832,0.99951,0.03052,-0.21362,0.00000,19848
27.46,0.08643,-0.02783,0.99951,0.06104,-0.27466,-0.12207,19853
27.46,0.08643,-0.02783,0.99951,0.06104,-0.24414,-0.12207,19859
27.43,0.08643,-0.02734,0.99951,0.06104,-0.27466,-0.21362,19864
27.43,0.08643,-0.02734,0.99951,0.12207,-0.33569,-0.03052,19870
27.43,0.08691,-0.02783,0.99902,0.06104,-0.24414,-0.15259,19875
27.43,0.08691,-0.02783,0.99902,0.00000,-0.27466,-0.21362,19881
27.44,0.08691,-0.02930,0.99902,0.06104,-0.33569,0.03052,19886
27.43,0.08691,-0.02930,0.99902,0.18311,-0.21362,-0.03052,19892
27.43,0.08594,-0.02979,0.99902,0.03052,-0.24414,-0.12207,19897
27.41,0.08496,-0.02881,0.99902,0.00000,-0.30518,-0.06104,19903
27.41,0.08496,-0.02881,0.99902,0.00000,-0.30518,-0.03052,19909
27.46,0.08496,-0.02832,0.99951,-0.12207,-0.33569,-0.09155,19914
27.46,0.08496,-0.02832,0.99951,-0.12207,-0.27466,-0.09155,19920
27.42,0.08594,-0.02783,1.00049,-0.06104,-0.27466,-0.15259,19925
27.44,0.08594,-0.02783,1.00049,0.00000,-0.39673,-0.09155,19931
27.44,0.08691,-0.02832,1.00098,0.00000,-0.33569,-0.18311,19937
27.47,0.08691,-0.02832,1.00098,0.03052,-0.24414,-0.06104,19942
27.47,0.08740,-0.02930,1.00146,0.03052,-0.33569,-0.09155,19948
27.41,0.08740,-0.02881,1.00195,0.00000,-0.33569,-0.06104,19953
27.41,0.08740,-0.02881,1.00195,0.21362,-0.27466,-0.09155,19959
27.42,0.08691,-0.02832,1.00195,0.06104,-0.24414,0.03052,19964
27.42,0.08691,-0.02832,1.00195,0.03052,-0.33569,-0.03052,19970
27.45,0.08643,-0.02832,1.00049,0.09155,-0.27466,-0.09155,19975
27.45,0.08643,-0.02832,1.00049,0.03052,-0.33569,-0.12207,19981
27.45,0.08643,-0.02783,0.99902,-0.06104,-0.27466,0.03052,19986
27.45,0.08643,-0.02783,0.99902,-0.09155,-0.15259,-0.09155,19992
27.45,0.08643,-0.02783,0.99854,0.12207,-0.27466,0.00000,19998
27.46,0.08691,-0.02832,0.99805,0.06104,-0.36621,0.00000,20003
27.46,0.08691,-0.02832,0.99805,0.00000,-0.24414,-0.06104,20009
27.43,0.08691,-0.02881,0.99805,0.06104,-0.21362,-0.03052,20014
27.43,0.08691,-0.02881,0.99805,0.09155,-0.21362,-0.18311,20020
27.44,0.08691,-0.02930,0.99854,0.09155,-0.21362,-0.15259,20025
27.41,0.08691,-0.02930,0.99854,0.03052,-0.21362,-0.03052,20031
27.41,0.08643,-0.02979,0.99805,0.06104,-0.21362,-0.09155,20036
27.44,0.08643,-0.02979,0.99805,0.09155,-0.27466,-0.03052,20042
27.44,0.08594,-0.02930,0.99854,0.03052,-0.39673,-0.03052,20047
27.43,0.08643,-0.02832,1.00098,0.03052,-0.21362,0.03052,20053
27.43,0.08643,-0.02832,1.00098,0.06104,-0.39673,0.03052,20058
27.46,0.08740,-0.02832,1.00244,0.09155,-0.30518,-0.03052,20064
27.46,0.08740,-0.02832,1.00244,0.00000,-0.36621,-0.12207,20069
27.45,0.08740,-0.02832,1.00244,0.00000,-0.18311,-0.03052,20075
27.41,0.08740,-0.02832,1.00244,0.00000,-0.27466,-0.03052,20081
27.41,0.08643,-0.02783,1.00146,0.09155,-0.30518,0.00000,20086
27.44,0.08643,-0.02783,1.00146,0.03052,-0.33569,-0.06104,20092
27.44,0.08643,-0.02832,0.99902,-0.03052,-0.15259,-0.09155,20097
27.44,0.08447,-0.02930,0.99512,0.09155,-0.09155,-0.03052,20103
27.44,0.08447,-0.02930,0.99512,0.06104,-0.42725,0.00000,20108
27.44,0.08350,-0.02783,0.99609,0.03052,-0.39673,-0.09155,20114
27.44,0.08350,-0.02783,0.99609,-0.09155,-0.06104,-0.06104,20119
27.43,0.08740,-0.02637,1.00195,-0.12207,-0.15259,0.00000,20125
27.40,0.08740,-0.02637,1.00195,-0.06104,-0.21362,-0.06104,20131
27.40,0.08643,-0.02832,1.00146,0.06104,-0.12207,-0.03052,20136
27.41,0.08496,-0.03076,1.00000,0.21362,-0.45776,-0.09155,20142
27.41,0.08496,-0.03076,1.00000,0.21362,-0.30518,-0.12207,20147
27.43,0.08789,-0.03027,1.00146,0.00000,-0.15259,-0.03052,20153
27.43,0.08789,-0.03027,1.00146,-0.15259,-0.03052,-0.03052,20158
27.46,0.08789,-0.02832,1.00146,-0.06104,-0.33569,-0.12207,20164
27.43,0.08789,-0.02832,1.00146,0.12207,-0.36621,-0.15259,20170
27.43,0.08594,-0.02686,1.00000,0.27466,-0.45776,-0.12207,20175
27.48,0.08594,-0.02686,1.00000,0.18311,-0.21362,-0.06104,20181
27.48,0.08643,-0.02637,1.00000,0.00000,-0.27466,-0.03052,20186
27.46,0.08594,-0.02637,0.99854,-0.12207,-0.18311,-0.03052,20192
27.46,0.08594,-0.02637,0.99854,-0.15259,-0.36621,-0.09155,20198
27.45,0.08594,-0.02832,0.99854,0.09155,-0.39673,-0.12207,20203
27.45,0.08594,-0.02832,0.99854,0.15259,-0.21362,-0.03052,20209
27.46,0.08643,-0.02832,0.99902,0.18311,-0.15259,-0.09155,20214
27.44,0.08643,-0.02832,0.99902,0.06104,-0.30518,-0.06104,20220
27.44,0.08496,-0.02686,0.99756,-0.06104,-0.18311,0.03052,20225
27.45,0.08496,-0.02686,0.99756,-0.15259,-0.48828,-0.09155,20231
27.45,0.08545,-0.02734,0.99707,0.15259,-0.21362,-0.12207,20237
27.43,0.08691,-0.02686,0.99902,0.12207,-0.33569,-0.09155,20242
27.43,0.08691,-0.02686,0.99902,0.03052,-0.03052,-0.06104,20248
27.45,0.08789,-0.02686,1.00000,-0.09155,-0.30518,-0.12207,20253
27.45,0.08789,-0.02686,1.00000,-0.12207,-0.24414,-0.03052,20259
27.44,0.08838,-0.02881,1.00098,0.06104,-0.18311,-0.06104,20264
27.44,0.08838,-0.02881,1.00098,0.18311,-0.33569,-0.09155,20270
27.44,0.08740,-0.03027,1.00195,0.15259,-0.09155,-0.06104,20276
27.39,0.08643,-0.02930,1.00049,-0.03052,-0.24414,-0.06104,20281
27.39,0.08643,-0.02930,1.00049,-0.09155,-0.24414,-0.12207,20287
27.44,0.08545,-0.02734,0.99902,0.09155,-0.36621,-0.06104,20292
27.44,0.08545,-0.02734,0.99902,0.18311,-0.30518,0.00000,20298
27.43,0.08594,-0.02686,1.00000,0.12207,-0.27466,-0.12207,20303
27.44,0.08594,-0.02686,1.00000,0.03052,-0.24414,-0.12207,20309
27.44,0.08643,-0.02734,1.00000,-0.06104,-0.27466,0.00000,20315
27.43,0.08643,-0.02734,1.00000,-0.06104,-0.36621,-0.15259,20320
27.43,0.08594,-0.02832,0.99854,0.09155,-0.27466,-0.15259,20326
27.42,0.08691,-0.02930,0.99951,0.24414,-0.30518,-0.18311,20331
27.42,0.08691,-0.02930,0.99951,0.06104,-0.30518,-0.15259,20337
27.45,0.08643,-0.02832,1.00049,-0.03052,-0.24414,-0.09155,20342
27.45,0.08643,-0.02832,1.00049,-0.09155,-0.36621,-0.06104,20348
27.43,0.08545,-0.02734,1.00049,0.03052,-0.33569,-0.09155,20354
27.47,0.08545,-0.02734,1.00049,0.15259,-0.33569,-0.09155,20359
27.47,0.08545,-0.02734,1.00098,0.09155,-0.33569,-0.15259,20365
27.44,0.08545,-0.02734,1.00098,0.06104,-0.18311,-0.18311,20370
27.44,0.08545,-0.02686,1.00098,0.00000,-0.27466,0.00000,20376
27.44,0.08594,-0.02783,1.00049,0.03052,-0.24414,-0.03052,20381
27.44,0.08594,-0.02783,1.00049,0.06104,-0.21362,-0.09155,20387
27.45,0.08691,-0.02930,1.00195,0.06104,-0.30518,-0.03052,20392
27.45,0.08691,-0.02930,1.00195,0.12207,-0.21362,0.00000,20398
27.41,0.08643,-0.02930,1.00244,0.24414,-0.39673,0.03052,20403
27.43,0.08643,-0.02930,1.00244,0.03052,-0.36621,-0.03052,20409
27.43,0.08643,-0.02783,1.00146,0.00000,-0.33569,-0.15259,20414
27.43,0.08643,-0.02783,1.00146,0.03052,-0.36621,-0.06104,20420
27.43,0.08643,-0.02783,1.00098,-0.06104,-0.15259,-0.24414,20426
27.46,0.08594,-0.02832,1.00000,0.06104,-0.15259,-0.21362,20431
27.46,0.08594,-0.02832,1.00000,0.09155,-0.45776,-0.09155,20437
27.43,0.08496,-0.02832,0.99951,0.03052,-0.27466,-0.03052,20442
27.43,0.08496,-0.02832,0.99951,0.00000,-0.27466,-0.15259,20448
27.41,0.08545,-0.02783,0.99902,-0.06104,-0.24414,-0.03052,20453
27.43,0.08545,-0.02783,0.99902,-0.06104,-0.30518,-0.06104,20459
27.43,0.08594,-0.02734,0.99854,-0.03052,-0.39673,0.00000,20465
27.45,0.08545,-0.02881,0.99902,0.00000,-0.24414,-0.06104,20470
27.45,0.08545,-0.02881,0.99902,0.09155,-0.33569,-0.03052,20476
27.41,0.08545,-0.02979,0.99951,0.18311,-0.27466,0.00000,20481
27.41,0.08545,-0.02979,0.99951,0.06104,-0.33569,-0.06104,20487
27.43,0.06982,-0.02490,1.00439,0.33569,0.94604,-0.15259,20492
27.43,0.06982,-0.02490,1.00439,-1.64795,-7.38525,-0.03052,20498
27.44,0.08984,-0.02881,1.00244,-0.88501,4.39453,0.24414,20503
27.45,0.08984,-0.02881,1.00244,0.30518,2.83813,0.45776,20509
27.45,0.10645,-0.03369,0.99512,0.94604,-3.78418,-0.36621,20514
27.46,0.08936,-0.02197,1.00146,0.73242,0.24414,-0.30518,20520
27.46,0.08936,-0.02197,1.00146,0.24414,-1.12915,0.21362,20525
27.45,0.09326,-0.01904,1.00684,-0.64087,-0.85449,0.48828,20531
27.45,0.09326,-0.01904,1.00684,-1.03760,0.79346,0.00000,20536
27.46,0.08740,-0.02295,1.00049,-0.64087,0.39673,-0.21362,20542
27.46,0.08740,-0.02295,1.00049,0.61035,-0.51880,-0.12207,20547
27.46,0.08154,-0.02539,0.99512,0.76294,-0.67139,-0.21362,20553
27.45,0.08154,-0.02539,0.99512,0.48828,-0.67139,-0.06104,20558
27.45,0.08496,-0.02588,0.99707,0.03052,-0.30518,-0.03052,20564
27.47,0.08936,-0.02588,1.00049,-0.57983,0.36621,-0.18311,20570
27.47,0.08936,-0.02588,1.00049,-0.61035,-0.36621,0.00000,20575
27.44,0.09131,-0.02881,1.00244,-0.09155,-0.30518,-0.03052,20581
27.44,0.09131,-0.02881,1.00244,0.39673,-0.57983,-0.06104,20586
27.44,0.08789,-0.02979,1.00195,0.39673,-0.12207,-0.09155,20592
27.44,0.08789,-0.02979,1.00195,0.30518,-0.03052,0.00000,20597
27.48,0.08496,-0.02588,0.99951,0.03052,-0.51880,0.15259,20603
27.43,0.08496,-0.02588,0.99951,-0.21362,0.03052,-0.06104,20608
27.43,0.08447,-0.02148,0.99902,-0.33569,-0.91553,-0.30518,20614
27.44,0.08545,-0.02344,0.99854,0.09155,0.06104,-0.06104,20620
27.44,0.08545,-0.02344,0.99854,0.18311,-0.45776,-0.24414,20625
27.46,0.08789,-0.02930,0.99902,0.15259,-0.06104,-0.21362,20631
27.46,0.08789,-0.02930,0.99902,0.00000,-0.36621,-0.09155,20636
27.46,0.08936,-0.03320,1.00244,-0.03052,-0.18311,0.03052,20642
27.46,0.08936,-0.03320,1.00244,0.03052,-0.27466,0.00000,20647
27.45,0.08887,-0.03223,1.00293,0.15259,-0.33569,0.03052,20653
27.50,0.08887,-0.03223,1.00293,0.21362,-0.18311,-0.09155,20658
27.50,0.08740,-0.02686,1.00000,0.03052,-0.39673,-0.06104,20664
27.46,0.08545,-0.02246,0.99707,-0.06104,-0.42725,-0.06104,20669
27.46,0.08545,-0.02246,0.99707,-0.18311,-0.36621,-0.12207,20675
27.46,0.08594,-0.02246,0.99707,0.03052,-0.15259,-0.06104,20681
27.46,0.08594,-0.02246,0.99707,0.09155,-0.88501,0.03052,20686
27.44,0.08936,-0.02539,1.00000,0.03052,-0.30518,-0.09155,20692
27.44,0.08936,-0.02539,1.00000,-0.03052,-0.24414,-0.03052,20697
27.44,0.08887,-0.02930,1.00049,0.00000,0.15259,0.00000,20703
27.43,0.08887,-0.02930,1.00049,-0.09155,-0.85449,-0.09155,20708
27.43,0.08691,-0.03223,0.99951,0.03052,0.03052,0.00000,20714
27.43,0.08789,-0.03125,1.00146,0.18311,-0.48828,-0.03052,20719
27.43,0.08789,-0.03125,1.00146,0.15259,0.00000,-0.06104,20725
